timestamp,accX,accY,accZ,gyroX,gyroY,gyroZ
5.0067901611328125e-06,-0.019142580800000086,0.026321048599999952,0.015553346900002651,-0.0019853120241435512,0.007177666548826692,-0.0036651914291881
0.01274561882019043,0.0011964112999999221,0.02033899210000001,-0.0023928225999974018,-0.0004581489286485177,0.005497787143782157,-0.004734205596034623
0.023918628692626953,-0.019142580800000086,0.004785645200000022,-0.003589233899997879,0.004123340357836604,-0.002443460952792048,-0.007177666548826685
0.035077810287475586,-0.0011964113000000332,0.011964112999999998,-0.017946169500000053,0.007330382858376179,-0.009315694882519737,-0.005039638215133632
0.04384779930114746,-0.0035892339000000995,-0.014356935599999954,-0.014356935599998621,0.004276056667386105,-0.006566801310628659,0.002443460952792055
0.05299520492553711,0.005982056499999944,-0.02153540339999993,0.010767701700000742,0.0016798794050445348,-0.006566801310628659,0.004276056667386105
2.0638954639434814,0.0035892338999999884,0.013160524300000032,0.0023928226000009545,0.000610865238198012,0.003207042500539589,-0.0033597588100890904
2.068526029586792,0.0035892338999999884,0.013160524300000032,-0.017946169500000053,0.0,0.001221730476396038,-0.005039638215133632
2.0733275413513184,-0.0035892339000000995,0.015553346899999987,-0.017946169500000053,0.0,0.001221730476396038,-0.005039638215133632
2.07812237739563,-0.0035892339000000995,0.015553346899999987,-0.017946169500000053,0.0022907446432425538,0.0013744467859455461,-0.005650503453331644
2.0826079845428467,-0.0011964113000000332,0.004785645200000022,0.0023928226000009545,0.0022907446432425538,0.0013744467859455461,-0.005650503453331644
2.0871055126190186,-0.0011964113000000332,0.004785645200000022,0.0023928226000009545,0.0022907446432425538,0.0013744467859455461,-0.005650503453331644
2.0916106700897217,0.015553346899999987,0.005982056499999944,0.03110669380000175,-0.0035124751196385882,0.00885754595387124,-0.0013744467859455392
2.0965561866760254,0.015553346899999987,0.005982056499999944,0.03110669380000175,-0.0035124751196385882,0.00885754595387124,-0.0013744467859455392
2.1011412143707275,0.011964112999999887,0.0023928225999999553,0.0023928226000009545,-0.0003054326190990095,0.0035124751196385917,-0.0013744467859455392
2.105623722076416,0.011964112999999887,0.0023928225999999553,0.0023928226000009545,-0.0003054326190990095,0.0035124751196385917,-0.0013744467859455392
2.1100940704345703,0.023928225999999886,-0.009571290400000043,-0.004785645199998356,0.0,0.0,0.0
2.1148412227630615,0.023928225999999886,-0.009571290400000043,-0.004785645199998356,0.0,0.0,0.0
2.11952543258667,0.01674975819999991,-0.013160524300000032,0.020338992100001008,0.0013744467859455323,0.0001527163095495082,-0.0013744467859455392
2.124037265777588,0.01674975819999991,-0.013160524300000032,0.020338992100001008,0.0013744467859455323,0.0001527163095495082,-0.0013744467859455392
2.1285033226013184,0.01674975819999991,-0.013160524300000032,0.021535403399997932,0.0019853120241435443,0.0007635815477475272,-0.0004581489286485177
2.1329667568206787,0.01316052429999992,0.004785645200000022,0.021535403399997932,0.0019853120241435443,0.0007635815477475272,-0.0004581489286485177
2.137775421142578,0.01316052429999992,0.004785645200000022,0.021535403399997932,0.0033597588100890766,-0.0027488935718910645,-0.0027488935718910715
2.1422886848449707,0.008374879099999899,-0.0011964113000000332,0.05503491980000064,0.0033597588100890766,-0.0027488935718910645,-0.0027488935718910715
2.147113800048828,0.008374879099999899,-0.0011964113000000332,0.05503491980000064,0.0033597588100890766,-0.0027488935718910645,-0.0027488935718910715
2.1516592502593994,0.01674975819999991,-0.017946169499999942,-0.0059820564999988335,-0.003054326190990081,0.004276056667386119,0.0009162978572970146
2.1563665866851807,0.01674975819999991,-0.017946169499999942,-0.0059820564999988335,-0.003054326190990081,0.004276056667386119,0.0009162978572970146
2.161058187484741,0.007178467799999977,-0.013160524300000032,0.03469592769999963,-0.004276056667386112,0.005039638215133632,0.0015271630954950335
2.165787935256958,0.007178467799999977,-0.013160524300000032,0.03469592769999963,-0.004276056667386112,0.005039638215133632,0.0015271630954950335
2.170305013656616,-0.023928226000000108,-0.02033899210000001,0.0035892339000014317,0.00030543261909900254,-0.00045814892864851076,-0.0010690141668465297
2.1751461029052734,-0.023928226000000108,-0.02033899210000001,0.0035892339000014317,0.00030543261909900254,-0.00045814892864851076,-0.0010690141668465297
2.179908275604248,0.020338992099999897,0.007178467799999977,0.008374879099999788,0.003665191429188086,-0.00595593607243064,-0.00259617726234157
2.1846954822540283,0.020338992099999897,0.007178467799999977,0.008374879099999788,0.003665191429188086,-0.00595593607243064,-0.00259617726234157
2.189685106277466,-0.004785645200000022,0.0035892338999999884,0.01674975820000313,-0.0004581489286485177,0.0009162978572970354,0.0009162978572970146
2.19498610496521,-0.004785645200000022,0.0035892338999999884,0.01674975820000313,-0.0004581489286485177,0.0009162978572970354,0.0009162978572970146
2.2024986743927,-0.007178467800000088,0.007178467799999977,-0.014356935599998621,0.0015271630954950335,-0.003512475119638578,-0.0010690141668465297
2.208361864089966,-0.013160524300000032,0.004785645200000022,-0.03110669380000175,-0.000610865238198019,0.0001527163095495082,-0.0007635815477475202
2.2137606143951416,-0.013160524300000032,0.004785645200000022,-0.03110669380000175,-0.000610865238198019,0.0001527163095495082,-0.0007635815477475202
2.219057083129883,0.007178467799999977,0.02512463729999992,0.020338992100001008,0.0013744467859455323,-0.0018325957145940291,-0.0035124751196385987
2.2241947650909424,0.007178467799999977,0.02512463729999992,0.020338992100001008,0.0013744467859455323,-0.0018325957145940291,-0.0035124751196385987
2.229325771331787,-0.013160524300000032,0.017946169499999942,0.01914258080000053,0.00030543261909900254,0.0039706240482871025,-0.0016798794050445487
2.234323263168335,-0.013160524300000032,0.017946169499999942,0.01914258080000053,0.00030543261909900254,0.0039706240482871025,-0.0016798794050445487
2.2395100593566895,0.03708875029999992,-0.004785645200000022,0.010767701700000742,0.0032070425005395753,-0.002443460952792048,-0.0039706240482871025
2.2448132038116455,0.03708875029999992,-0.004785645200000022,0.010767701700000742,0.0032070425005395753,-0.002443460952792048,-0.0039706240482871025
2.2495038509368896,-0.02512463730000014,0.0011964113000000332,0.028713871200000796,0.0025961772623415633,0.0,-0.003054326190990081
2.25433087348938,-0.02512463730000014,0.0011964113000000332,0.028713871200000796,0.0025961772623415633,0.0,-0.003054326190990081
2.2591145038604736,0.0023928225999999553,-0.0035892338999999884,-0.014356935599998621,0.0039706240482870955,-0.003970624048287089,-0.004123340357836604
2.263617753982544,0.0023928225999999553,-0.0035892338999999884,-0.014356935599998621,0.0039706240482870955,-0.003970624048287089,-0.004123340357836604
2.268125295639038,0.0023928225999999553,-0.0035892338999999884,-0.014356935599998621,-0.0007635815477475202,0.0001527163095495082,0.004123340357836597
2.272627592086792,0.0011964112999999221,-0.0035892338999999884,-0.04187439549999894,-0.0007635815477475202,0.0001527163095495082,0.004123340357836597
2.27726674079895,0.0011964112999999221,-0.0035892338999999884,-0.04187439549999894,-0.0007635815477475202,0.0001527163095495082,0.001832595714594043
2.2818350791931152,0.007178467799999977,-0.014356935599999954,-0.008374879099999788,0.0019853120241435443,-0.005039638215133618,0.001832595714594043
2.2863659858703613,0.007178467799999977,-0.014356935599999954,-0.008374879099999788,0.0019853120241435443,-0.005039638215133618,0.001832595714594043
2.290879487991333,-0.0035892339000000995,0.0011964113000000332,0.04067798419999846,0.0025961772623415633,-0.004123340357836597,0.0032070425005395753
2.2958247661590576,-0.0035892339000000995,0.0011964113000000332,0.04067798419999846,0.0025961772623415633,-0.004123340357836597,0.0032070425005395753
2.3005385398864746,-0.005982056500000055,-0.0011964113000000332,-0.020338992099997455,-0.000610865238198019,-0.0027488935718910645,0.0027488935718910645
2.305305242538452,-0.005982056500000055,-0.0011964113000000332,-0.020338992099997455,-0.000610865238198019,-0.0027488935718910645,0.0027488935718910645
2.310056447982788,0.010767701699999965,-0.009571290400000043,-0.028713871200000796,0.0015271630954950335,-0.0045814892864851076,-0.0021380283336930594
2.3148155212402344,0.010767701699999965,-0.009571290400000043,-0.028713871200000796,0.0015271630954950335,-0.0045814892864851076,-0.0021380283336930594
2.319422483444214,-0.00837487910000001,-0.022731814699999964,-0.02751745990000032,-0.0019853120241435512,0.0039706240482871025,0.00015271630954949433
2.3241493701934814,-0.00837487910000001,-0.022731814699999964,-0.02751745990000032,-0.0019853120241435512,0.0039706240482871025,0.00015271630954949433
2.3289084434509277,0.020338992099999897,-0.023928225999999997,-0.008374879099999788,-0.0021380283336930594,0.00519235452468314,0.000610865238198012
2.3337390422821045,0.020338992099999897,-0.023928225999999997,-0.008374879099999788,-0.0021380283336930594,0.00519235452468314,0.000610865238198012
2.3384172916412354,-0.010767701700000076,-0.005982056499999944,0.025124637299999364,0.0010690141668465228,-0.001221730476396024,-0.0010690141668465297
2.342944622039795,-0.010767701700000076,-0.005982056499999944,0.025124637299999364,0.0010690141668465228,-0.001221730476396024,-0.0010690141668465297
2.347456216812134,-0.010767701700000076,-0.005982056499999944,0.025124637299999364,0.0019853120241435443,-0.0018325957145940291,-0.0035124751196385987
2.352400064468384,-0.005982056500000055,-0.02153540339999993,0.015553346900002651,0.0019853120241435443,-0.0018325957145940291,-0.0035124751196385987
2.3571949005126953,-0.005982056500000055,-0.02153540339999993,0.015553346900002651,0.0019853120241435443,-0.0015271630954950405,-0.0016798794050445487
2.361959218978882,0.005982056499999944,-0.004785645200000022,0.0059820564999988335,0.00015271630954950127,-0.0015271630954950405,-0.0016798794050445487
2.366499662399292,0.005982056499999944,-0.004785645200000022,0.0059820564999988335,0.00015271630954950127,-0.0015271630954950405,-0.0016798794050445487
2.3710410594940186,-0.013160524300000032,0.0023928225999999553,-0.008374879099999788,-0.0001527163095495082,-0.00015271630954949433,0.0015271630954950335
2.3757593631744385,-0.013160524300000032,0.0023928225999999553,-0.008374879099999788,-0.0001527163095495082,-0.00015271630954949433,0.0015271630954950335
2.3805556297302246,0.009571290399999932,0.0035892338999999884,0.004785645199998356,-0.0001527163095495082,-0.0013744467859455323,0.0022907446432425538
2.385265350341797,0.009571290399999932,0.0035892338999999884,0.004785645199998356,-0.0001527163095495082,-0.0013744467859455323,0.0022907446432425538
2.390009880065918,-0.019142580800000086,-0.00837487910000001,0.008374879099999788,-0.001221730476396038,0.0007635815477475272,0.0010690141668465228
2.3947572708129883,-0.019142580800000086,-0.00837487910000001,0.008374879099999788,-0.001221730476396038,0.0007635815477475272,0.0010690141668465228
2.399400234222412,0.019142580799999975,0.011964112999999998,-0.01914258080000053,0.0033597588100890766,-0.004886921905584124,-0.0019853120241435512
2.40411639213562,0.019142580799999975,0.011964112999999998,-0.01914258080000053,0.0033597588100890766,-0.004886921905584124,-0.0019853120241435512
2.408860683441162,0.0047856451999999106,0.004785645200000022,-0.02273181469999841,-0.0016798794050445418,0.0045814892864851214,0.0004581489286485038
2.41355037689209,0.0047856451999999106,0.004785645200000022,-0.02273181469999841,-0.0016798794050445418,0.0045814892864851214,0.0004581489286485038
2.4180915355682373,0.0047856451999999106,0.009571290400000043,0.004785645199998356,-0.003665191429188093,0.007483099167925694,0.0007635815477475133
2.4226572513580322,0.023928225999999886,0.009571290400000043,0.004785645199998356,-0.003665191429188093,0.007483099167925694,0.0007635815477475133
2.427175521850586,0.023928225999999886,0.009571290400000043,0.004785645199998356,-0.003665191429188093,0.00045814892864852463,-0.0029016098814405797
2.4319334030151367,0.0,-0.005982056499999944,0.015553346900002651,0.0007635815477475202,0.00045814892864852463,-0.0029016098814405797
2.436471462249756,0.0,-0.005982056499999944,0.015553346900002651,0.0007635815477475202,0.00045814892864852463,-0.0029016098814405797
2.4413132667541504,0.014356935599999954,-0.0011964113000000332,0.01196411300000122,-0.0007635815477475202,0.0021380283336930594,-0.0016798794050445487
2.445922613143921,0.014356935599999954,-0.0011964113000000332,0.01196411300000122,-0.0007635815477475202,0.0021380283336930594,-0.0016798794050445487
2.4510557651519775,-0.03469592770000007,-0.007178467799999977,0.009571290400000265,-0.0004581489286485177,0.0010690141668465436,-0.0004581489286485177
4.457310676574707,0.0047856451999999106,-0.027517459899999985,0.008374879099999788,0.00030543261909900254,0.0013744467859455461,0.00015271630954949433
4.462167024612427,0.0047856451999999106,-0.027517459899999985,0.008374879099999788,0.00030543261909900254,0.0013744467859455461,0.00015271630954949433
4.467092990875244,-0.005982056500000055,-0.03708875029999992,-0.023928225999998887,0.0016798794050445348,-0.00229074464324254,-0.0015271630954950474
4.471984624862671,-0.005982056500000055,-0.03708875029999992,-0.023928225999998887,0.0016798794050445348,-0.00229074464324254,-0.0015271630954950474
4.476488351821899,-0.022731814700000075,-0.057427742399999926,-0.013160524300001697,0.0035124751196385848,-0.003054326190990067,-0.003207042500539589
4.4809730052948,-0.022731814700000075,-0.057427742399999926,-0.013160524300001697,0.0035124751196385848,-0.003054326190990067,-0.003207042500539589
4.485504865646362,0.017946169499999942,-0.03349951639999993,0.02632104859999984,-0.0021380283336930594,0.005039638215133632,0.001832595714594043
4.490290641784668,0.017946169499999942,-0.03349951639999993,0.02632104859999984,-0.0021380283336930594,0.005039638215133632,0.001832595714594043
4.495060920715332,0.011964112999999887,-0.02871387120000002,0.009571290400000265,-0.00259617726234157,0.004276056667386119,0.0025961772623415563
4.499596834182739,0.011964112999999887,-0.02871387120000002,0.009571290400000265,-0.00259617726234157,0.004276056667386119,0.0025961772623415563
4.504301309585571,0.011964112999999887,-0.02871387120000002,0.009571290400000265,0.0016798794050445348,-0.003970624048287089,-0.0019853120241435512
4.509032964706421,0.008374879099999899,-0.019142580799999975,-0.04187439549999894,0.0016798794050445348,-0.003970624048287089,-0.0019853120241435512
4.513827562332153,0.008374879099999899,-0.019142580799999975,-0.04187439549999894,-0.0016798794050445418,0.002443460952792062,-0.0001527163095495082
4.518687963485718,0.0035892338999999884,-0.03349951639999993,-0.028713871200000796,-0.0016798794050445418,0.002443460952792062,-0.0001527163095495082
4.523749351501465,0.0035892338999999884,-0.03349951639999993,-0.028713871200000796,0.0,0.000610865238198019,-0.0029016098814405797
4.528569221496582,-0.009571290400000043,-0.02153540339999993,0.004785645199998356,0.0,0.000610865238198019,-0.0029016098814405797
4.533276557922363,-0.009571290400000043,-0.02153540339999993,0.004785645199998356,0.0,0.000610865238198019,-0.0029016098814405797
4.538029670715332,0.01674975819999991,-0.02991028249999994,0.029910282500001273,0.0015271630954950335,0.0022907446432425538,-0.002443460952792062
4.542738914489746,0.01674975819999991,-0.02991028249999994,0.029910282500001273,0.0015271630954950335,0.0022907446432425538,-0.002443460952792062
4.547518014907837,0.010767701699999965,-0.031106693799999974,-0.014356935599998621,-0.0010690141668465297,0.00519235452468314,0.00030543261909900254
4.552168130874634,0.010767701699999965,-0.031106693799999974,-0.014356935599998621,-0.0010690141668465297,0.00519235452468314,0.00030543261909900254
4.556912660598755,-0.0011964113000000332,-0.039481572899999984,-0.003589233899997879,-0.0015271630954950405,0.006261368691529656,0.00015271630954949433
4.561622142791748,-0.0011964113000000332,-0.039481572899999984,-0.003589233899997879,-0.0015271630954950405,0.006261368691529656,0.00015271630954949433
4.56633186340332,-0.02991028250000005,-0.056231331100000004,-0.0059820564999988335,0.001221730476396024,0.002443460952792062,-0.001221730476396038
4.571187734603882,-0.02991028250000005,-0.056231331100000004,-0.0059820564999988335,0.001221730476396024,0.002443460952792062,-0.001221730476396038
4.575940132141113,-0.010767701700000076,-0.06580262149999994,-0.04546362940000037,-0.001221730476396038,0.001985312024143565,-0.000610865238198019
4.580604076385498,-0.010767701700000076,-0.06580262149999994,-0.04546362940000037,-0.001221730476396038,0.001985312024143565,-0.000610865238198019
4.585328817367554,0.011964112999999887,-0.019142580799999975,-0.010767701700000742,0.0016798794050445348,-0.0051923545246831265,-0.0010690141668465297
4.589813947677612,0.011964112999999887,-0.019142580799999975,-0.010767701700000742,0.0016798794050445348,-0.0051923545246831265,-0.0010690141668465297
4.594622611999512,-0.0011964113000000332,-0.011964112999999998,0.0011964113000004772,-0.003054326190990081,0.0036651914291881,0.0022907446432425538
4.599405527114868,-0.0011964113000000332,-0.011964112999999998,0.0011964113000004772,-0.003054326190990081,0.0036651914291881,0.0022907446432425538
4.604124069213867,-0.0011964113000000332,-0.011964112999999998,0.0011964113000004772,-0.0021380283336930594,0.0010690141668465436,0.0019853120241435443
4.608853578567505,-0.010767701700000076,-0.03469592769999996,0.004785645199998356,-0.0021380283336930594,0.0010690141668465436,0.0019853120241435443
4.613607883453369,-0.010767701700000076,-0.03469592769999996,0.004785645199998356,-0.001221730476396038,0.001985312024143565,0.0027488935718910645
4.6183388233184814,-0.03828516160000006,-0.04067798420000002,0.021535403399997932,-0.001221730476396038,0.001985312024143565,0.0027488935718910645
4.623397350311279,-0.03828516160000006,-0.04067798420000002,0.021535403399997932,-0.001221730476396038,0.0003054326190990164,0.00015271630954949433
4.628058910369873,0.010767701699999965,-0.05024927459999995,0.0023928226000009545,-0.0007635815477475202,0.0003054326190990164,0.00015271630954949433
4.633105516433716,0.010767701699999965,-0.05024927459999995,0.0023928226000009545,-0.0007635815477475202,0.0003054326190990164,0.00015271630954949433
4.637742757797241,0.027517459899999874,-0.04187439549999994,0.0035892339000014317,-0.0016798794050445418,0.0021380283336930594,0.0019853120241435443
4.642291069030762,0.027517459899999874,-0.04187439549999994,0.0035892339000014317,-0.0016798794050445418,0.0021380283336930594,0.0019853120241435443
4.6468727588653564,-0.007178467800000088,-0.031106693799999974,0.0035892339000014317,-0.0010690141668465297,0.0015271630954950544,0.004123340357836597
4.651429176330566,-0.007178467800000088,-0.031106693799999974,0.0035892339000014317,-0.0010690141668465297,0.0015271630954950544,0.004123340357836597
4.656130790710449,0.023928225999999886,-0.04666004069999996,-0.010767701700000742,-0.0007635815477475202,-0.00229074464324254,0.0019853120241435443
4.660684823989868,0.023928225999999886,-0.04666004069999996,-0.010767701700000742,-0.0007635815477475202,-0.00229074464324254,0.0019853120241435443
4.665085792541504,0.017946169499999942,-0.02153540339999993,-0.0059820564999988335,0.0022907446432425538,-0.005803219762881132,0.001221730476396024
4.669536113739014,0.017946169499999942,-0.02153540339999993,-0.0059820564999988335,0.0022907446432425538,-0.005803219762881132,0.001221730476396024
4.674145698547363,0.017946169499999942,-0.02153540339999993,-0.004785645199998356,0.0025961772623415633,-0.00595593607243064,-0.0001527163095495082
4.678569793701172,-0.026321048600000063,-0.047856451999999994,-0.004785645199998356,0.0025961772623415633,-0.00595593607243064,-0.0001527163095495082
4.68291974067688,-0.026321048600000063,-0.047856451999999994,-0.004785645199998356,0.0025961772623415633,-0.00595593607243064,-0.0001527163095495082
4.6872878074646,0.03708875029999992,-0.014356935599999954,0.004785645199998356,0.0016798794050445348,-0.0038179077387375943,-0.0019853120241435512
4.691639423370361,0.03708875029999992,-0.014356935599999954,0.004785645199998356,0.0016798794050445348,-0.0038179077387375943,-0.0019853120241435512
4.696133375167847,0.015553346899999987,-0.02991028249999994,-0.014356935599998621,-0.0021380283336930594,0.005955936072430654,0.0015271630954950335
4.70086407661438,0.015553346899999987,-0.02991028249999994,-0.014356935599998621,-0.0021380283336930594,0.005955936072430654,0.0015271630954950335
6.707674264907837,0.06939185539999992,-0.015553346899999987,0.02632104859999984,-0.0004581489286485177,-0.0018325957145940291,0.0033597588100890835
6.712530136108398,0.0023928225999999553,-0.0837487910000001,-0.039481572899997985,0.002901609881440566,-0.008857545953871226,0.000610865238198012
6.717303514480591,0.0023928225999999553,-0.0837487910000001,-0.039481572899997985,0.002901609881440566,-0.008857545953871226,0.000610865238198012
6.721980810165405,-0.04307080680000008,-0.04187439549999994,-0.0646062102000009,0.0021380283336930525,-0.005497787143782143,-0.0003054326190990095
6.726877689361572,-0.04307080680000008,-0.04187439549999994,-0.0646062102000009,0.0021380283336930525,-0.005497787143782143,-0.0003054326190990095
6.731734037399292,0.05623133109999989,-0.02991028249999994,0.013160524300001697,-0.0029016098814405727,0.0035124751196385917,-0.0009162978572970285
6.736679553985596,0.05623133109999989,-0.02991028249999994,0.013160524300001697,-0.0029016098814405727,0.0035124751196385917,-0.0009162978572970285
6.741487979888916,0.07417750059999983,-0.011964112999999998,-0.020338992099997455,-0.0015271630954950405,0.009926560120717756,-0.006261368691529663
6.746046781539917,0.07417750059999983,-0.011964112999999998,-0.020338992099997455,-0.0015271630954950405,0.009926560120717756,-0.006261368691529663
6.751035213470459,0.0047856451999999106,0.03828516159999995,-0.008374879099999788,-0.006872233929727675,0.018784106074588983,-0.00992656012071775
6.755630254745483,0.0047856451999999106,0.03828516159999995,-0.008374879099999788,-0.006872233929727675,0.018784106074588983,-0.00992656012071775
6.760165691375732,0.0047856451999999106,0.03828516159999995,-0.008374879099999788,-0.005345070834232638,0.015271630954950391,-0.010231992739816759
6.764928579330444,0.04307080679999986,0.022731814699999964,0.058624153699998516,-0.005345070834232638,0.015271630954950391,-0.010231992739816759
8.771717548370361,0.04307080679999986,-0.11126625090000009,-0.003589233899997879,-0.000610865238198019,0.0001527163095495082,0.001221730476396024
8.776492595672607,0.04307080679999986,-0.11126625090000009,-0.003589233899997879,0.00015271630954950127,-0.00015271630954949433,-0.0010690141668465297
8.78136157989502,0.032303105099999896,-0.13399806560000005,-0.03708875029999703,0.00015271630954950127,-0.00015271630954949433,-0.0010690141668465297
8.785905361175537,0.032303105099999896,-0.13399806560000005,-0.03708875029999703,0.00015271630954950127,-0.00015271630954949433,-0.0010690141668465297
8.790637969970703,0.032303105099999896,-0.09930213790000009,0.0059820564999988335,0.0,-0.00030543261909900254,-0.0010690141668465297
8.79527497291565,0.032303105099999896,-0.09930213790000009,0.0059820564999988335,0.0,-0.00030543261909900254,-0.0010690141668465297
8.800649166107178,0.03708875029999992,-0.0837487910000001,-0.02751745990000032,0.0016798794050445348,-0.002443460952792048,-0.0013744467859455392
8.805202960968018,0.03708875029999992,-0.0837487910000001,-0.02751745990000032,0.0016798794050445348,-0.002443460952792048,-0.0013744467859455392
8.809889078140259,0.05623133109999989,-0.1040877831,-0.01914258080000053,0.0021380283336930525,-0.004276056667386105,-0.0013744467859455392
8.814518213272095,0.05623133109999989,-0.1040877831,-0.01914258080000053,0.0021380283336930525,-0.004276056667386105,-0.0013744467859455392
8.819267272949219,0.06699903279999986,-0.08494520230000002,0.010767701700000742,-0.0003054326190990095,0.0015271630954950544,0.00015271630954949433
8.823947668075562,0.06699903279999986,-0.08494520230000002,0.010767701700000742,-0.0003054326190990095,0.0015271630954950544,0.00015271630954949433
8.828616857528687,0.03828516159999995,-0.11485548480000007,-0.0059820564999988335,-0.0029016098814405727,0.008246680715673221,0.0025961772623415563
8.833797216415405,0.03828516159999995,-0.11485548480000007,-0.0059820564999988335,-0.0029016098814405727,0.008246680715673221,0.0025961772623415563
8.838545083999634,0.06939185539999992,-0.10289137180000008,0.008374879099999788,-0.0013744467859455392,0.0035124751196385917,0.0009162978572970146
8.84307050704956,0.06939185539999992,-0.10289137180000008,0.008374879099999788,-0.0013744467859455392,0.0035124751196385917,0.0009162978572970146
8.848205327987671,0.05623133109999989,-0.10169496050000004,-0.039481572899997985,0.002443460952792062,-0.0027488935718910645,-0.0027488935718910715
8.852760314941406,0.05623133109999989,-0.10169496050000004,-0.039481572899997985,0.002443460952792062,-0.0027488935718910645,-0.0027488935718910715
8.857242584228516,0.05623133109999989,-0.10289137180000008,-0.04307080679999942,0.0038179077387375943,-0.004886921905584124,-0.0013744467859455392
8.861720085144043,0.04307080679999986,-0.10289137180000008,-0.04307080679999942,0.0038179077387375943,-0.004886921905584124,-0.0013744467859455392
8.866156101226807,0.04307080679999986,-0.10289137180000008,-0.04307080679999942,0.0038179077387375943,-0.004886921905584124,-0.0033597588100890904
8.870591163635254,0.03708875029999992,-0.09092725880000008,0.029910282500001273,0.0033597588100890766,-0.00595593607243064,-0.0033597588100890904
8.875020503997803,0.03708875029999992,-0.09092725880000008,0.029910282500001273,0.0033597588100890766,-0.00595593607243064,-0.0033597588100890904
8.87955117225647,0.04666004069999985,-0.10289137180000008,-0.008374879099999788,-0.004428772976935617,0.007483099167925694,0.0015271630954950335
8.883938312530518,0.04666004069999985,-0.10289137180000008,-0.008374879099999788,-0.004428772976935617,0.007483099167925694,0.0015271630954950335
8.888385772705078,0.04785645199999988,-0.1040877831,-0.0059820564999988335,-0.0021380283336930594,0.004886921905584138,0.00015271630954949433
8.892943143844604,0.04785645199999988,-0.1040877831,-0.0059820564999988335,-0.0021380283336930594,0.004886921905584138,0.00015271630954949433
8.897423267364502,0.028713871199999907,-0.1040877831,0.020338992100001008,0.0019853120241435443,-0.00229074464324254,-0.001221730476396038
8.902000665664673,0.028713871199999907,-0.1040877831,0.020338992100001008,0.0019853120241435443,-0.00229074464324254,-0.001221730476396038
8.906445741653442,0.028713871199999907,-0.1040877831,0.020338992100001008,0.001832595714594043,-0.005345070834232635,-0.0016798794050445487
8.91088080406189,0.040677984199999906,-0.09930213790000009,-0.01914258080000053,0.001832595714594043,-0.005345070834232635,-0.0016798794050445487
8.91530728340149,0.040677984199999906,-0.09930213790000009,-0.01914258080000053,0.001832595714594043,-0.005345070834232635,-0.0016798794050445487
8.919814825057983,0.05862415369999985,-0.10169496050000004,-0.013160524300001697,0.0016798794050445348,-0.005039638215133618,-0.0007635815477475202
8.924270629882812,0.05862415369999985,-0.10169496050000004,-0.013160524300001697,0.0016798794050445348,-0.005039638215133618,-0.0007635815477475202
8.928672313690186,0.057427742399999926,-0.09690931530000002,0.0035892339000014317,-0.000610865238198019,-0.0018325957145940291,0.0009162978572970146
8.93301796913147,0.057427742399999926,-0.09690931530000002,0.0035892339000014317,-0.000610865238198019,-0.0018325957145940291,0.0009162978572970146
8.937426328659058,0.04666004069999985,-0.1160518961,0.007178467799999311,-0.0033597588100890904,0.004428772976935613,0.0019853120241435443
8.941922187805176,0.04666004069999985,-0.1160518961,0.007178467799999311,-0.0033597588100890904,0.004428772976935613,0.0019853120241435443
8.946388483047485,0.04666004069999985,-0.1160518961,0.007178467799999311,-0.0016798794050445418,0.001985312024143565,0.0016798794050445348
8.951027393341064,0.052642097199999904,-0.056231331100000004,0.02273181469999841,-0.0016798794050445418,0.001985312024143565,0.0016798794050445348
8.955467462539673,0.052642097199999904,-0.056231331100000004,0.02273181469999841,-0.0016798794050445418,0.001985312024143565,0.0016798794050445348
8.959924459457397,0.03828516159999995,-0.07298108930000002,-0.03349951639999915,0.0015271630954950335,-0.003054326190990067,-0.0010690141668465297
8.9643714427948,0.03828516159999995,-0.07298108930000002,-0.03349951639999915,0.0015271630954950335,-0.003054326190990067,-0.0010690141668465297
8.968854427337646,0.03708875029999992,-0.0957129040000001,-0.03110669380000175,-0.0015271630954950405,0.000610865238198019,0.0007635815477475133
8.973595380783081,0.03708875029999992,-0.0957129040000001,-0.03110669380000175,-0.0015271630954950405,0.000610865238198019,0.0007635815477475133
8.978026390075684,0.04546362939999993,-0.11844471870000006,0.0059820564999988335,-0.0022907446432425607,0.0035124751196385917,0.000610865238198012
8.982507467269897,0.04546362939999993,-0.11844471870000006,0.0059820564999988335,-0.0022907446432425607,0.0035124751196385917,0.000610865238198012
8.986993312835693,0.04546362939999993,-0.11844471870000006,-0.025124637299999364,-0.002443460952792069,0.0029016098814405727,0.001832595714594043
8.991393566131592,0.05862415369999985,-0.09690931530000002,-0.025124637299999364,-0.002443460952792069,0.0029016098814405727,0.001832595714594043
8.996005296707153,0.05862415369999985,-0.09690931530000002,-0.025124637299999364,-0.002443460952792069,-0.004734205596034616,-0.0027488935718910715
9.000578165054321,0.04546362939999993,-0.1040877831,0.029910282500001273,0.0033597588100890766,-0.004734205596034616,-0.0027488935718910715
9.005077123641968,0.04546362939999993,-0.1040877831,0.029910282500001273,0.0033597588100890766,-0.004734205596034616,-0.0027488935718910715
9.009505987167358,0.03828516159999995,-0.09690931530000002,0.01674975820000313,0.0021380283336930525,-0.0007635815477475133,-0.0016798794050445487
9.013904809951782,0.03828516159999995,-0.09690931530000002,0.01674975820000313,0.0021380283336930525,-0.0007635815477475133,-0.0016798794050445487
9.018308639526367,0.05623133109999989,-0.10528419440000003,-0.010767701700000742,0.0016798794050445348,-0.0013744467859455323,-0.0009162978572970285
9.02280855178833,0.05623133109999989,-0.10528419440000003,-0.010767701700000742,0.0016798794050445348,-0.0013744467859455323,-0.0009162978572970285
9.027600526809692,0.04666004069999985,-0.09930213790000009,0.03110669380000175,0.001832595714594043,-0.003665191429188086,-0.0003054326190990095
11.034544229507446,0.040677984199999906,-0.10528419440000003,0.009571290400000265,0.00015271630954950127,0.002443460952792062,-0.0015271630954950474
11.03943681716919,0.040677984199999906,-0.10528419440000003,0.009571290400000265,0.00015271630954950127,0.002443460952792062,-0.0015271630954950474
11.044307947158813,0.049052863299999916,-0.10648060570000006,-0.0059820564999988335,-0.000610865238198019,0.0022907446432425538,-0.0009162978572970285
11.049038887023926,0.049052863299999916,-0.10648060570000006,-0.0059820564999988335,-0.000610865238198019,0.0022907446432425538,-0.0009162978572970285
11.053966522216797,0.07058826669999985,-0.08494520230000002,-0.02751745990000032,-0.0021380283336930594,0.004123340357836611,0.0015271630954950335
11.058787822723389,0.07058826669999985,-0.08494520230000002,-0.02751745990000032,-0.0021380283336930594,0.004123340357836611,0.0015271630954950335
11.06374740600586,0.05862415369999985,-0.09690931530000002,-0.04307080679999942,-0.0013744467859455392,0.001832595714594057,-0.0001527163095495082
11.068628787994385,0.05862415369999985,-0.09690931530000002,-0.04307080679999942,-0.0013744467859455392,0.001832595714594057,-0.0001527163095495082
11.073523998260498,0.05862415369999985,-0.08853443620000001,0.02751745990000032,-0.0022907446432425607,0.004123340357836611,0.0025961772623415563
11.078715801239014,0.017946169499999942,-0.08853443620000001,0.02751745990000032,-0.0022907446432425607,0.004123340357836611,0.0025961772623415563
13.085718393325806,-0.04666004070000007,-0.13519447689999997,-0.003589233899997879,-0.001221730476396038,0.002443460952792062,-0.0019853120241435512
13.090376377105713,-0.05503491980000008,-0.13280165430000002,-0.03828516159999751,0.00030543261909900254,0.001221730476396038,-0.0013744467859455392
13.095071077346802,-0.05503491980000008,-0.13280165430000002,-0.03828516159999751,0.00030543261909900254,0.001221730476396038,-0.0013744467859455392
13.09999680519104,-0.05503491980000008,-0.13280165430000002,0.04067798419999846,0.00030543261909900254,0.001221730476396038,0.0015271630954950335
13.104641675949097,-0.03469592770000007,-0.1244267752,0.04067798419999846,0.00030543261909900254,0.001221730476396038,0.0015271630954950335
13.10917329788208,-0.03469592770000007,-0.1244267752,0.04067798419999846,0.00030543261909900254,0.004123340357836611,0.004276056667386105
13.113703727722168,-0.019142580800000086,-0.14117653340000003,0.0035892339000014317,-0.003054326190990081,0.004123340357836611,0.004276056667386105
13.118409156799316,-0.019142580800000086,-0.14117653340000003,0.0035892339000014317,-0.003054326190990081,0.004123340357836611,0.004276056667386105
13.123104810714722,-0.02871387120000013,-0.13399806560000005,-0.03708875029999703,-0.000610865238198019,0.001985312024143565,0.0004581489286485038
13.128177404403687,-0.02871387120000013,-0.13399806560000005,-0.03708875029999703,-0.000610865238198019,0.001985312024143565,0.0004581489286485038
13.132962703704834,-0.05383850850000005,-0.14715858989999997,0.0023928226000009545,0.001832595714594043,-0.0007635815477475133,-0.00183259571459405
13.138251781463623,-0.05383850850000005,-0.14715858989999997,0.0023928226000009545,0.001832595714594043,-0.0007635815477475133,-0.00183259571459405
13.143670082092285,-0.07417750060000006,-0.1363908882,0.0059820564999988335,0.0007635815477475202,-0.0007635815477475133,-0.0009162978572970285
13.148898124694824,-0.07417750060000006,-0.1363908882,0.0059820564999988335,0.0007635815477475202,0.002443460952792062,0.00030543261909900254
13.153994798660278,-0.04307080680000008,-0.13878371079999996,-0.01196411300000122,-0.0009162978572970285,0.002443460952792062,0.00030543261909900254
13.159240961074829,-0.04307080680000008,-0.13878371079999996,-0.01196411300000122,0.00045814892864851076,0.0001527163095495082,-0.000610865238198019
13.164950132369995,-0.04546362940000004,-0.15433705769999995,-0.035892339000000106,0.00045814892864851076,0.0001527163095495082,-0.000610865238198019
13.170171022415161,-0.017946169500000053,-0.13758729950000004,-0.06819544409999878,-0.0001527163095495082,0.001221730476396038,-0.000610865238198019
13.175506591796875,-0.017946169500000053,-0.13758729950000004,-0.06819544409999878,-0.0001527163095495082,0.001221730476396038,-0.000610865238198019
13.180561304092407,-0.026321048600000063,-0.1244267752,0.0,0.0016798794050445348,-0.0006108652381980051,-0.0016798794050445487
13.185739994049072,-0.026321048600000063,-0.1244267752,0.0,0.0016798794050445348,-0.0006108652381980051,-0.0016798794050445487
13.190701484680176,-0.056231331100000115,-0.13878371079999996,0.029910282500001273,-0.0010690141668465297,0.0010690141668465436,0.0010690141668465228
13.19530439376831,-0.056231331100000115,-0.13878371079999996,0.029910282500001273,-0.0010690141668465297,0.0010690141668465436,0.0010690141668465228
13.201006889343262,-0.05024927460000006,-0.13280165430000002,-0.021535403399997932,-0.0007635815477475202,0.0016798794050445487,0.0007635815477475133
13.205895900726318,-0.05024927460000006,-0.13280165430000002,-0.021535403399997932,-0.0007635815477475202,0.0016798794050445487,0.0007635815477475133
13.210731744766235,-0.05503491980000008,-0.13878371079999996,-0.010767701700000742,-0.0003054326190990095,0.0027488935718910645,-0.0015271630954950474
13.215231657028198,-0.05503491980000008,-0.13878371079999996,-0.010767701700000742,-0.0003054326190990095,0.0027488935718910645,-0.0015271630954950474
13.219760179519653,-0.05503491980000008,-0.13878371079999996,-0.010767701700000742,-0.0032070425005395822,0.006719517620178167,0.00015271630954949433
13.22423505783081,-0.07537391190000009,-0.1244267752,-0.016749758199999576,-0.0032070425005395822,0.006719517620178167,0.00015271630954949433
13.228819131851196,-0.07537391190000009,-0.1244267752,-0.016749758199999576,-0.0032070425005395822,0.006719517620178167,-0.0004581489286485177
13.233232498168945,-0.039481572900000095,-0.1483550012,0.004785645199998356,0.0010690141668465228,-0.0019853120241435374,-0.0004581489286485177
13.237641096115112,-0.039481572900000095,-0.1483550012,0.004785645199998356,0.0010690141668465228,-0.0019853120241435374,-0.0004581489286485177
13.242035388946533,-0.02871387120000013,-0.1280160091,-0.016749758199999576,-0.0003054326190990095,0.00045814892864852463,-0.0007635815477475202
13.246511936187744,-0.02871387120000013,-0.1280160091,-0.016749758199999576,-0.0003054326190990095,0.00045814892864852463,-0.0007635815477475202
13.250911712646484,-0.022731814700000075,-0.15074782379999996,-0.02632104859999984,0.001221730476396024,0.0003054326190990164,-0.00183259571459405
13.255353450775146,-0.022731814700000075,-0.15074782379999996,-0.02632104859999984,0.001221730476396024,0.0003054326190990164,-0.00183259571459405
13.259746551513672,-0.022731814700000075,-0.15074782379999996,-0.02632104859999984,0.001832595714594043,0.0001527163095495082,-0.0010690141668465297
13.264130115509033,-0.035892339000000106,-0.14476576730000001,0.02751745990000032,0.001832595714594043,0.0001527163095495082,-0.0010690141668465297
13.268534421920776,-0.035892339000000106,-0.14476576730000001,0.02751745990000032,0.001832595714594043,0.0001527163095495082,-0.0010690141668465297
13.272859334945679,-0.047856452000000105,-0.15074782379999996,-0.0059820564999988335,0.0022907446432425538,-0.004123340357836597,-0.0013744467859455392
13.277358770370483,-0.047856452000000105,-0.15074782379999996,-0.0059820564999988335,0.0022907446432425538,-0.004123340357836597,-0.0013744467859455392
13.281862497329712,-0.052642097200000126,-0.14715858989999997,0.025124637299999364,0.004734205596034609,-0.007941248096574191,-0.0022907446432425607
13.286398649215698,-0.052642097200000126,-0.14715858989999997,0.025124637299999364,0.004734205596034609,-0.007941248096574191,-0.0022907446432425607
13.290831327438354,-0.05862415370000007,-0.11844471870000006,-0.004785645199998356,0.0035124751196385848,-0.006108652381980134,-0.0015271630954950474
13.295251369476318,-0.05862415370000007,-0.11844471870000006,-0.004785645199998356,0.0035124751196385848,-0.006108652381980134,-0.0015271630954950474
13.299651384353638,-0.05862415370000007,-0.11844471870000006,-0.023928225999998887,-0.00259617726234157,0.0029016098814405727,0.0015271630954950335
13.304118633270264,-0.04187439550000005,-0.13519447689999997,-0.023928225999998887,-0.00259617726234157,0.0029016098814405727,0.0015271630954950335
13.308648586273193,-0.04187439550000005,-0.13519447689999997,-0.023928225999998887,-0.00259617726234157,0.0029016098814405727,-0.0015271630954950474
13.313213109970093,-0.04307080680000008,-0.15314064640000002,-0.03349951639999915,0.0013744467859455323,-0.0018325957145940291,-0.0015271630954950474
13.317661762237549,-0.04307080680000008,-0.15314064640000002,-0.03349951639999915,0.0013744467859455323,-0.0018325957145940291,-0.0015271630954950474
13.32209300994873,-0.05024927460000006,-0.13280165430000002,-0.008374879099999788,0.0013744467859455323,-0.0015271630954950405,-0.001221730476396038
13.327038526535034,-0.05024927460000006,-0.13280165430000002,-0.008374879099999788,0.0013744467859455323,-0.0015271630954950405,-0.001221730476396038
13.331973552703857,-0.044267218100000116,-0.14237294470000006,-0.02632104859999984,-0.0019853120241435512,0.003817907738737608,0.0009162978572970146
13.337164402008057,-0.044267218100000116,-0.14237294470000006,-0.02632104859999984,-0.0019853120241435512,0.003817907738737608,0.0009162978572970146
13.341601133346558,-0.044267218100000116,-0.1280160091,-0.003589233899997879,-0.001221730476396038,0.0035124751196385917,0.001221730476396024
13.346460580825806,-0.044267218100000116,-0.1280160091,-0.003589233899997879,-0.001221730476396038,0.0035124751196385917,0.001221730476396024
13.35095763206482,-0.026321048600000063,-0.14237294470000006,-0.025124637299999364,-0.0015271630954950405,0.0039706240482871025,0.001221730476396024
13.3553786277771,-0.026321048600000063,-0.14237294470000006,-0.025124637299999364,-0.0015271630954950405,0.0039706240482871025,0.001221730476396024
13.359814167022705,-0.026321048600000063,-0.14117653340000003,-0.05264209719999968,0.0022907446432425538,-0.0051923545246831265,-0.0021380283336930594
13.364372253417969,-0.03469592770000007,-0.14117653340000003,-0.05264209719999968,0.0022907446432425538,-0.0051923545246831265,-0.0021380283336930594
13.36903977394104,-0.03469592770000007,-0.14117653340000003,-0.05264209719999968,0.00030543261909900254,0.0013744467859455461,-0.0004581489286485177
13.373454093933105,-0.03828516160000006,-0.14117653340000003,-0.007178467799999311,0.00030543261909900254,0.0013744467859455461,-0.0004581489286485177
13.378279685974121,-0.03828516160000006,-0.14117653340000003,-0.007178467799999311,0.00030543261909900254,0.0013744467859455461,-0.0004581489286485177
13.382873058319092,-0.03828516160000006,-0.13399806560000005,-0.020338992099997455,-0.0015271630954950405,0.004276056667386119,0.0019853120241435443
13.387697696685791,-0.03828516160000006,-0.13399806560000005,-0.020338992099997455,-0.0015271630954950405,0.004276056667386119,0.0019853120241435443
15.394536256790161,-0.015553346900000098,-0.16989040459999993,-0.0059820564999988335,0.0010690141668465228,0.0,0.000610865238198012
15.399200677871704,-0.02033899210000012,-0.1686939933,-0.044267218099999894,0.001221730476396024,-0.00030543261909900254,0.0007635815477475133
15.403919458389282,-0.02033899210000012,-0.1686939933,-0.044267218099999894,0.001221730476396024,-0.00030543261909900254,0.0007635815477475133
15.408645868301392,-0.02512463730000014,-0.16989040459999993,-0.035892339000000106,0.004276056667386105,-0.005803219762881132,-0.0027488935718910715
15.413272857666016,-0.02512463730000014,-0.16989040459999993,-0.035892339000000106,0.004276056667386105,-0.005803219762881132,-0.0027488935718910715
15.417992353439331,-0.01674975820000013,-0.16989040459999993,-0.004785645199998356,0.0010690141668465228,-0.003665191429188086,-0.0021380283336930594
15.422632217407227,-0.01674975820000013,-0.16989040459999993,-0.004785645199998356,0.0010690141668465228,-0.003665191429188086,-0.0021380283336930594
15.427279233932495,0.005982056499999944,-0.15074782379999996,0.0,0.0010690141668465228,-0.00015271630954949433,-0.002443460952792062
15.432245254516602,0.005982056499999944,-0.15074782379999996,0.0,0.0010690141668465228,-0.00015271630954949433,-0.002443460952792062
15.437485933303833,-0.019142580800000086,-0.13160524299999998,-0.05623133109999756,-0.005650503453331644,0.010384709049366267,0.0022907446432425538
15.442299127578735,-0.019142580800000086,-0.13160524299999998,-0.05623133109999756,-0.005650503453331644,0.010384709049366267,0.0022907446432425538
15.446957111358643,-0.04067798420000013,-0.17108681589999997,0.008374879099999788,-0.000610865238198019,0.0016798794050445487,0.0015271630954950335
15.451473951339722,-0.04067798420000013,-0.17108681589999997,0.008374879099999788,-0.000610865238198019,0.0016798794050445487,0.0015271630954950335
15.456103086471558,-0.04067798420000013,-0.17108681589999997,0.009571290400000265,0.001221730476396024,-0.0016798794050445487,0.001221730476396024
15.460684537887573,0.014356935599999954,-0.13878371079999996,0.009571290400000265,0.001221730476396024,-0.0016798794050445487,0.001221730476396024
15.465603351593018,0.014356935599999954,-0.13878371079999996,0.009571290400000265,0.00015271630954950127,0.0003054326190990164,0.0009162978572970146
15.470757007598877,-0.011964112999999998,-0.15433705769999995,0.035892339000000106,0.00015271630954950127,0.0003054326190990164,0.0009162978572970146
15.475921154022217,-0.011964112999999998,-0.15792629160000005,0.0023928226000009545,0.000610865238198012,0.00045814892864852463,-0.0007635815477475202
15.48121690750122,-0.039481572900000095,-0.15792629160000005,0.0023928226000009545,0.000610865238198012,0.00045814892864852463,-0.0007635815477475202
15.485999822616577,-0.039481572900000095,-0.15792629160000005,-0.015553346899999099,0.0,0.000610865238198019,0.0015271630954950335
15.490662336349487,-0.009571290400000043,-0.1603191142,-0.015553346899999099,0.0,0.000610865238198019,0.0015271630954950335
15.495213508605957,-0.009571290400000043,-0.1603191142,-0.015553346899999099,-0.0010690141668465297,0.0015271630954950544,0.00030543261909900254
15.500079154968262,-0.039481572900000095,-0.15433705769999995,-0.023928225999998887,-0.0010690141668465297,0.0015271630954950544,0.00030543261909900254
15.505073547363281,-0.039481572900000095,-0.15433705769999995,-0.023928225999998887,-0.0010690141668465297,-0.0025961772623415563,-0.001221730476396038
15.509768724441528,-0.023928226000000108,-0.15792629160000005,0.017946169500000053,0.0010690141668465228,-0.0025961772623415563,-0.001221730476396038
15.514239072799683,-0.023928226000000108,-0.15792629160000005,0.017946169500000053,0.0010690141668465228,-0.0025961772623415563,-0.001221730476396038
15.518835067749023,-0.039481572900000095,-0.14955141250000004,-0.04067798419999846,0.00045814892864851076,-0.0019853120241435374,-0.0007635815477475202
15.523334264755249,-0.039481572900000095,-0.14955141250000004,-0.04067798419999846,0.00045814892864851076,-0.0019853120241435374,-0.0007635815477475202
15.52783465385437,-0.03349951640000004,-0.1399801221,-0.035892339000000106,-0.0010690141668465297,0.0029016098814405727,0.00015271630954949433
15.532268524169922,-0.03349951640000004,-0.1399801221,-0.035892339000000106,-0.0010690141668465297,0.0029016098814405727,0.00015271630954949433
15.536940813064575,0.007178467799999977,-0.14476576730000001,-0.021535403399997932,-0.004123340357836607,0.006566801310628673,0.002443460952792055
15.541554927825928,0.007178467799999977,-0.14476576730000001,-0.021535403399997932,-0.004123340357836607,0.006566801310628673,0.002443460952792055
15.546029567718506,0.007178467799999977,-0.1519442351,-0.004785645199998356,-0.00259617726234157,0.0036651914291881,0.0022907446432425538
15.550470352172852,0.023928225999999886,-0.1519442351,-0.004785645199998356,-0.00259617726234157,0.0036651914291881,0.0022907446432425538
15.554929733276367,0.023928225999999886,-0.1519442351,-0.004785645199998356,-0.00259617726234157,0.0036651914291881,-0.0004581489286485177
15.559435367584229,-0.010767701700000076,-0.17946169499999998,-0.01196411300000122,0.0013744467859455323,0.0,-0.0004581489286485177
15.563910961151123,-0.010767701700000076,-0.17946169499999998,-0.01196411300000122,0.0013744467859455323,0.0,-0.0004581489286485177
15.568456411361694,-0.014356935600000065,-0.14715858989999997,-0.016749758199999576,0.002443460952792062,-0.0018325957145940291,-0.0010690141668465297
15.572813510894775,-0.014356935600000065,-0.14715858989999997,-0.016749758199999576,0.002443460952792062,-0.0018325957145940291,-0.0010690141668465297
15.57737112045288,-0.031106693800000085,-0.12681959780000007,-0.01196411300000122,-0.0022907446432425607,0.0039706240482871025,-0.000610865238198019
15.582126379013062,-0.031106693800000085,-0.12681959780000007,-0.01196411300000122,-0.0022907446432425607,0.0039706240482871025,-0.000610865238198019
17.589061737060547,-0.047856452000000105,0.05383850849999994,0.010767701700000742,0.0009162978572970146,-0.00015271630954949433,-0.0003054326190990095
17.594362258911133,-0.06699903280000008,0.0765703231999999,-0.010767701700000742,-0.001221730476396038,0.001832595714594057,0.0007635815477475133
17.599579095840454,-0.06699903280000008,0.0765703231999999,-0.010767701700000742,-0.001221730476396038,0.001832595714594057,0.0007635815477475133
17.604790210723877,-0.07058826670000007,0.08374879099999988,0.010767701700000742,-0.0007635815477475202,0.0009162978572970354,-0.0004581489286485177
17.610236883163452,-0.07058826670000007,0.08374879099999988,0.010767701700000742,-0.0007635815477475202,0.0009162978572970354,-0.0004581489286485177
17.615618228912354,-0.022731814700000075,0.0957129040000001,0.04187439549999894,0.00045814892864851076,0.0001527163095495082,-0.0007635815477475202
17.620959997177124,-0.022731814700000075,0.0957129040000001,0.04187439549999894,0.00045814892864851076,0.0001527163095495082,-0.0007635815477475202
17.626022338867188,-0.005982056500000055,0.06580262149999994,0.008374879099999788,0.0,0.0003054326190990164,-0.00183259571459405
17.630849599838257,-0.005982056500000055,0.06580262149999994,0.008374879099999788,0.0,0.0003054326190990164,-0.00183259571459405
17.635945081710815,-0.047856452000000105,0.07537391189999998,0.028713871200000796,-0.0015271630954950405,0.002443460952792062,0.0010690141668465228
17.640756130218506,-0.047856452000000105,0.07537391189999998,0.028713871200000796,-0.0015271630954950405,0.002443460952792062,0.0010690141668465228
17.64566159248352,-0.02512463730000014,0.08973084750000004,0.02273181469999841,-0.0029016098814405727,0.006261368691529656,0.0039706240482870955
17.65032696723938,-0.02512463730000014,0.08973084750000004,0.02273181469999841,-0.0029016098814405727,0.006261368691529656,0.0039706240482870955
17.654989004135132,-0.03469592770000007,0.05862415369999996,-0.0059820564999988335,-0.000610865238198019,0.0,0.0022907446432425538
17.65967059135437,-0.03469592770000007,0.05862415369999996,-0.0059820564999988335,-0.000610865238198019,0.0,0.0022907446432425538
17.66495132446289,-0.04905286330000003,0.061016976299999914,-0.0023928225999974018,-0.0021380283336930594,0.004886921905584138,0.0027488935718910645
17.669573545455933,-0.04905286330000003,0.061016976299999914,-0.0023928225999974018,-0.0021380283336930594,0.004886921905584138,0.0027488935718910645
17.674234867095947,-0.035892339000000106,0.07776673449999993,0.037088750300000584,0.0010690141668465228,-0.002901609881440559,0.00015271630954949433
17.678882360458374,-0.035892339000000106,0.07776673449999993,0.037088750300000584,0.0010690141668465228,-0.002901609881440559,0.00015271630954949433
17.683324098587036,-0.06221338760000006,0.06939185539999992,-0.008374879099999788,-0.004581489286485118,0.006566801310628673,0.0039706240482870955
17.68785285949707,-0.06221338760000006,0.06939185539999992,-0.008374879099999788,-0.004581489286485118,0.006566801310628673,0.0039706240482870955
17.692288875579834,-0.06221338760000006,0.06939185539999992,-0.03828516159999751,0.0007635815477475202,-0.0032070425005395753,-0.0015271630954950474
17.69671940803528,-0.047856452000000105,0.06819544409999989,-0.03828516159999751,0.0007635815477475202,-0.0032070425005395753,-0.0015271630954950474
17.70117735862732,-0.047856452000000105,0.06819544409999989,-0.03828516159999751,0.0007635815477475202,-0.0032070425005395753,-0.0015271630954950474
17.70563769340515,-0.07058826670000007,0.08015955709999989,-0.023928225999998887,0.000610865238198012,-0.0015271630954950405,-0.0016798794050445487
17.71009588241577,-0.07058826670000007,0.08015955709999989,-0.023928225999998887,0.000610865238198012,-0.0015271630954950405,-0.0016798794050445487
17.715471744537354,-0.05383850850000005,0.08374879099999988,-0.0059820564999988335,0.0007635815477475202,0.000610865238198019,-0.00183259571459405
17.720020532608032,-0.05383850850000005,0.08374879099999988,-0.0059820564999988335,0.0007635815477475202,0.000610865238198019,-0.00183259571459405
17.724458932876587,-0.06819544410000011,0.07178467799999988,-0.007178467799999311,0.00045814892864851076,-0.0013744467859455323,-0.001221730476396038
17.729052305221558,-0.06819544410000011,0.07178467799999988,-0.007178467799999311,0.00045814892864851076,-0.0013744467859455323,-0.001221730476396038
17.733457326889038,-0.04187439550000005,0.07058826669999996,-0.051445685899999205,-0.0039706240482871025,0.005803219762881159,0.0039706240482870955
17.737861156463623,-0.04187439550000005,0.07058826669999996,-0.051445685899999205,-0.0039706240482871025,0.005803219762881159,0.0039706240482870955
17.742254972457886,-0.04187439550000005,0.07058826669999996,0.0011964113000004772,-0.00183259571459405,0.00259617726234157,0.0013744467859455323
17.74712038040161,-0.06939185540000004,0.06819544409999989,0.0011964113000004772,-0.00183259571459405,0.00259617726234157,0.0013744467859455323
17.751591444015503,-0.06939185540000004,0.06819544409999989,0.0011964113000004772,0.0007635815477475202,0.0003054326190990164,-0.0003054326190990095
17.756055116653442,-0.044267218100000116,0.09451649270000007,0.025124637299999364,0.0007635815477475202,0.0003054326190990164,-0.0003054326190990095
17.760474681854248,-0.044267218100000116,0.09451649270000007,0.025124637299999364,-0.002443460952792069,0.005497787143782157,0.004734205596034612
17.766462564468384,-0.0598205650000001,0.052642097199999904,0.0059820564999988335,-0.002443460952792069,0.005497787143782157,0.004734205596034612
17.770955562591553,-0.0598205650000001,0.052642097199999904,0.0059820564999988335,-0.002443460952792069,0.005497787143782157,0.004734205596034612
17.775384426116943,-0.05742774240000004,0.0765703231999999,0.0035892339000014317,-0.002443460952792069,0.005039638215133632,0.0016798794050445348
17.77979850769043,-0.05742774240000004,0.0765703231999999,0.0035892339000014317,-0.002443460952792069,0.005039638215133632,0.0016798794050445348
17.78421688079834,-0.026321048600000063,0.08015955709999989,-0.0023928225999974018,-0.0064140850010791645,0.01007927643026725,0.0045814892864851076
17.789016485214233,-0.026321048600000063,0.08015955709999989,-0.0023928225999974018,-0.0064140850010791645,0.01007927643026725,0.0045814892864851076
17.793510913848877,-0.04187439550000005,0.09930213790000009,0.007178467799999311,-0.0021380283336930594,0.004123340357836611,0.0015271630954950335
17.797962427139282,-0.04187439550000005,0.09930213790000009,0.007178467799999311,-0.0021380283336930594,0.004123340357836611,0.0015271630954950335
17.80239224433899,-0.04067798420000013,0.08733802490000009,0.01196411300000122,-0.0001527163095495082,-0.0007635815477475133,-0.0010690141668465297
17.807116270065308,-0.04067798420000013,0.08733802490000009,0.01196411300000122,-0.0001527163095495082,-0.0007635815477475133,-0.0010690141668465297
17.811599493026733,-0.013160524300000032,0.08733802490000009,0.0,-0.0004581489286485177,0.00259617726234157,0.0013744467859455323
17.81766176223755,-0.013160524300000032,0.08733802490000009,0.0,-0.0004581489286485177,0.00259617726234157,0.0013744467859455323
17.822583436965942,-0.05862415370000007,0.08255237969999996,0.0011964113000004772,0.000610865238198012,-0.0013744467859455323,-0.0007635815477475202
17.82815718650818,-0.05862415370000007,0.08255237969999996,0.0011964113000004772,0.000610865238198012,-0.0013744467859455323,-0.0007635815477475202
19.836945295333862,-0.04067798420000013,0.047856451999999994,-0.003589233899997879,0.00015271630954950127,-0.00015271630954949433,-0.0003054326190990095
19.843048334121704,-0.056231331100000115,0.05862415369999996,-0.020338992099997455,-0.0004581489286485177,0.0022907446432425538,0.00030543261909900254
19.848857879638672,-0.0598205650000001,0.049052863299999916,0.03110669380000175,-0.0021380283336930594,0.0045814892864851214,0.000610865238198012
19.854673147201538,-0.0598205650000001,0.049052863299999916,0.03110669380000175,-0.0021380283336930594,0.0045814892864851214,0.000610865238198012
19.860533237457275,-0.047856452000000105,0.06340979889999998,0.05383850850000016,0.002443460952792062,-0.0025961772623415563,-0.0019853120241435512
19.86657452583313,-0.047856452000000105,0.06340979889999998,0.05383850850000016,0.002443460952792062,-0.0025961772623415563,-0.0019853120241435512
19.872427225112915,-0.04187439550000005,0.07776673449999993,0.0059820564999988335,0.001832595714594043,-0.004428772976935613,-0.0013744467859455392
19.87827730178833,-0.04187439550000005,0.07776673449999993,0.0059820564999988335,-0.000610865238198019,-0.0009162978572970215,-0.0013744467859455392
19.88431143760681,-0.031106693800000085,0.06939185539999992,0.0059820564999988335,-0.000610865238198019,-0.0009162978572970215,-0.0013744467859455392
19.89019513130188,-0.039481572900000095,0.06939185539999992,-0.02632104859999984,-0.00259617726234157,0.003054326190990081,0.0009162978572970146
19.895984888076782,-0.039481572900000095,0.06939185539999992,-0.02632104859999984,-0.00259617726234157,0.003054326190990081,0.0009162978572970146
19.901695728302002,-0.027517459900000096,0.06939185539999992,0.035892339000000106,0.00030543261909900254,-0.0006108652381980051,-0.0004581489286485177
19.90769052505493,-0.027517459900000096,0.06939185539999992,0.035892339000000106,0.0033597588100890766,-0.004276056667386105,-0.001221730476396038
19.913402795791626,-0.035892339000000106,0.07298108929999991,0.03828516159999751,0.0033597588100890766,-0.004276056667386105,-0.001221730476396038
19.918818950653076,-0.035892339000000106,0.05383850849999994,-0.0023928225999974018,0.00045814892864851076,-0.00229074464324254,0.0004581489286485038
19.924333572387695,-0.035892339000000106,0.05383850849999994,-0.0023928225999974018,0.00045814892864851076,-0.00229074464324254,0.0004581489286485038
19.92970323562622,-0.052642097200000126,0.052642097199999904,0.01196411300000122,0.0,0.000610865238198019,0.001221730476396024
19.935485363006592,-0.052642097200000126,0.052642097199999904,0.01196411300000122,0.0,0.000610865238198019,0.001221730476396024
19.941099405288696,-0.0035892339000000995,0.07178467799999988,0.010767701700000742,-0.0027488935718910715,0.006719517620178167,0.002443460952792055
19.946279287338257,-0.0035892339000000995,0.07178467799999988,0.010767701700000742,-0.0027488935718910715,0.006719517620178167,0.002443460952792055
19.951383113861084,-0.035892339000000106,0.06340979889999998,-0.0023928225999974018,-0.0016798794050445418,0.004276056667386119,0.0016798794050445348
19.956477403640747,-0.035892339000000106,0.06340979889999998,-0.0023928225999974018,-0.0016798794050445418,0.004276056667386119,0.0016798794050445348
19.961576461791992,-0.02512463730000014,0.07178467799999988,-0.007178467799999311,-0.0007635815477475202,0.0033597588100890835,0.0021380283336930525
19.966566801071167,-0.02512463730000014,0.07178467799999988,-0.007178467799999311,-0.0007635815477475202,0.0033597588100890835,0.0021380283336930525
19.97149419784546,-0.026321048600000063,0.07178467799999988,0.0011964113000004772,-0.0016798794050445418,0.001221730476396038,0.0021380283336930525
19.976658821105957,-0.026321048600000063,0.07178467799999988,0.0011964113000004772,-0.0016798794050445418,0.001221730476396038,0.0021380283336930525
19.981639862060547,-0.03708875030000014,0.07298108929999991,0.033499516400002705,-0.0021380283336930594,0.0029016098814405727,0.0015271630954950335
19.98677372932434,-0.03708875030000014,0.07298108929999991,0.033499516400002705,-0.0021380283336930594,0.0029016098814405727,0.0015271630954950335
19.99170708656311,-0.04307080680000008,0.05144568589999998,0.02751745990000032,-0.0009162978572970285,0.003817907738737608,0.0004581489286485038
19.996577739715576,-0.04307080680000008,0.05144568589999998,0.02751745990000032,-0.0009162978572970285,0.003817907738737608,0.0004581489286485038
20.00155019760132,0.010767701699999965,0.07417750059999995,0.04067798419999846,-0.0001527163095495082,0.001221730476396038,-0.0009162978572970285
20.006524562835693,0.010767701699999965,0.07417750059999995,0.04067798419999846,-0.0001527163095495082,0.001221730476396038,-0.0009162978572970285
20.011394262313843,-0.02991028250000005,0.057427742399999926,0.014356935600002174,-0.0004581489286485177,0.0016798794050445487,0.000610865238198012
20.016481399536133,-0.02991028250000005,0.057427742399999926,0.014356935600002174,-0.0004581489286485177,0.0016798794050445487,0.000610865238198012
20.021583557128906,-0.035892339000000106,0.06340979889999998,0.009571290400000265,-0.0033597588100890904,0.0045814892864851214,0.00015271630954949433
20.026949644088745,-0.035892339000000106,0.06340979889999998,0.009571290400000265,-0.0033597588100890904,0.0045814892864851214,0.00015271630954949433
20.032050848007202,-0.04666004070000007,0.05862415369999996,0.023928225999998887,0.003054326190990074,-0.0051923545246831265,-0.002443460952792062
20.037344932556152,-0.04666004070000007,0.05862415369999996,0.023928225999998887,0.003054326190990074,-0.003665191429188086,-0.00259617726234157
20.042381525039673,-0.03469592770000007,0.08494520230000002,-0.0059820564999988335,0.001832595714594043,-0.003665191429188086,-0.00259617726234157
20.04767894744873,-0.03469592770000007,0.08494520230000002,-0.0059820564999988335,-0.0021380283336930594,0.001832595714594057,0.0
20.052810668945312,-0.04187439550000005,0.04546362939999993,-0.029910282500001273,-0.0021380283336930594,0.001832595714594057,0.0
20.0579035282135,-0.04187439550000005,0.04546362939999993,-0.029910282500001273,-0.0021380283336930594,0.00473420559603463,0.0015271630954950335
20.063060998916626,-0.06699903280000008,0.06580262149999994,0.004785645199998356,-0.0021380283336930594,0.00473420559603463,0.0015271630954950335
20.068198680877686,-0.06699903280000008,0.07058826669999996,0.013160524300001697,0.001221730476396024,-0.0007635815477475133,-0.0010690141668465297
20.0733060836792,-0.035892339000000106,0.07058826669999996,0.013160524300001697,0.001221730476396024,-0.0007635815477475133,-0.0010690141668465297
20.07840323448181,-0.035892339000000106,0.0765703231999999,0.004785645199998356,0.0013744467859455323,-0.0016798794050445487,-0.0010690141668465297
20.08333683013916,-0.03828516160000006,0.0765703231999999,0.004785645199998356,0.0013744467859455323,-0.0016798794050445487,-0.0010690141668465297
20.08888816833496,-0.05862415370000007,0.05503491979999997,-0.017946169500000053,0.0022907446432425538,0.0003054326190990164,-0.0027488935718910715
20.094004154205322,-0.05862415370000007,0.05503491979999997,-0.017946169500000053,0.0022907446432425538,0.0003054326190990164,-0.0027488935718910715
20.099164962768555,-0.052642097200000126,0.05383850849999994,-0.05982056499999899,0.0007635815477475202,0.0009162978572970354,-0.001221730476396038
20.104344606399536,-0.052642097200000126,0.05383850849999994,-0.05982056499999899,0.0007635815477475202,0.0009162978572970354,-0.001221730476396038
20.10953998565674,-0.0598205650000001,0.04546362939999993,-0.0059820564999988335,-0.0013744467859455392,0.002443460952792062,0.0009162978572970146
20.11466932296753,-0.0598205650000001,0.04546362939999993,-0.0059820564999988335,-0.0013744467859455392,0.002443460952792062,0.0009162978572970146
20.11983609199524,-0.02512463730000014,0.06221338759999995,-0.007178467799999311,0.00030543261909900254,-0.00030543261909900254,-0.000610865238198019
20.125094652175903,-0.02512463730000014,0.06221338759999995,-0.007178467799999311,0.00030543261909900254,-0.00030543261909900254,-0.000610865238198019
20.13020420074463,-0.06340979890000009,0.057427742399999926,-0.04187439549999894,-0.0009162978572970285,0.003207042500539589,0.00030543261909900254
20.13546085357666,-0.06340979890000009,0.057427742399999926,-0.04187439549999894,-0.0009162978572970285,0.003207042500539589,0.00030543261909900254
20.140660524368286,-0.019142580800000086,0.040677984199999906,-0.008374879099999788,-0.0010690141668465297,0.000610865238198019,0.0004581489286485038
20.145869255065918,-0.019142580800000086,0.040677984199999906,-0.008374879099999788,-0.0010690141668465297,0.000610865238198019,0.0004581489286485038
20.150980472564697,-0.044267218100000116,0.07178467799999988,-0.004785645199998356,0.0013744467859455323,-0.004276056667386105,0.0
20.15629553794861,-0.044267218100000116,0.07178467799999988,-0.004785645199998356,0.0013744467859455323,-0.004276056667386105,0.0
20.16123867034912,-0.04067798420000013,0.06221338759999995,0.05024927460000228,-0.0019853120241435512,0.003054326190990081,0.0016798794050445348
20.1664822101593,-0.04067798420000013,0.06221338759999995,0.05024927460000228,-0.0019853120241435512,0.003054326190990081,0.0016798794050445348
20.171618700027466,-0.02512463730000014,0.03230310510000001,-0.01914258080000053,0.0027488935718910645,-0.003054326190990067,-0.0016798794050445487
20.176713705062866,-0.02512463730000014,0.03230310510000001,-0.01914258080000053,0.0027488935718910645,-0.003054326190990067,-0.0016798794050445487
20.182170629501343,-0.04666004070000007,0.06340979889999998,-0.023928225999998887,0.005039638215133618,-0.00595593607243064,-0.002443460952792062
20.187963724136353,-0.04666004070000007,0.06340979889999998,0.023928225999998887,0.0015271630954950335,-0.002901609881440559,-0.0003054326190990095
20.193076610565186,-0.04905286330000003,0.05982056499999999,0.023928225999998887,0.0015271630954950335,-0.002901609881440559,-0.0003054326190990095
20.198902130126953,-0.04546362940000004,0.0646062101999999,-0.004785645199998356,0.00030543261909900254,0.0015271630954950544,-0.000610865238198019
20.204427003860474,-0.04546362940000004,0.0646062101999999,-0.004785645199998356,0.00030543261909900254,0.0015271630954950544,-0.000610865238198019
20.210214853286743,-0.03349951640000004,0.07298108929999991,0.029910282500001273,-0.0007635815477475202,0.001985312024143565,0.0007635815477475133
