timestamp,accX,accY,accZ,gyroX,gyroY,gyroZ
0.000071,0.587438,0.764507,-9.550951,0.034819,-0.090866,-0.034819
0.005331,0.587438,0.764507,-9.550951,0.034819,-0.090866,-0.034819
0.009517,0.587438,0.764507,-9.550951,0.033139,-0.090713,-0.034667
0.013603,0.586242,0.769292,-9.558130,0.033139,-0.090713,-0.034667
0.017684,0.586242,0.769292,-9.558130,0.033139,-0.090713,-0.034667
0.021730,0.577867,0.760918,-9.541380,0.033139,-0.091783,-0.036041
0.025858,0.577867,0.760918,-9.541380,0.033139,-0.091783,-0.036041
0.029986,0.577867,0.759721,-9.518648,0.032376,-0.091019,-0.033598
0.034083,0.582652,0.759721,-9.518648,0.032376,-0.091019,-0.033598
0.038167,0.582652,0.759721,-9.518648,0.032376,-0.091019,-0.033598
0.042325,0.594616,0.746561,-9.531809,0.034667,-0.090713,-0.035125
0.046692,0.594616,0.746561,-9.531809,0.034667,-0.090713,-0.035125
0.050853,0.541974,0.732204,-9.535398,0.034972,-0.090866,-0.035736
0.054945,0.541974,0.732204,-9.535398,0.034972,-0.090866,-0.035736
0.059026,0.541974,0.732204,-9.535398,0.034972,-0.096059,-0.037415
0.063109,0.577867,0.751346,-9.537791,0.036957,-0.096059,-0.037415
0.067334,0.577867,0.751346,-9.537791,0.036957,-0.096059,-0.037415
0.071423,0.575474,0.753739,-9.464810,0.034514,-0.091019,-0.033903
0.075519,0.575474,0.753739,-9.464810,0.034514,-0.091019,-0.033903
0.079641,0.575474,0.753739,-9.568898,0.032529,-0.085674,-0.031765
0.083695,0.591027,0.757328,-9.568898,0.032529,-0.085674,-0.031765
0.087902,0.591027,0.757328,-9.568898,0.032529,-0.085674,-0.031765
0.092000,0.569492,0.739382,-9.493524,0.032681,-0.087965,-0.035583
0.096284,0.569492,0.739382,-9.493524,0.032681,-0.087965,-0.035583
0.100363,0.538385,0.756132,-9.518648,0.033139,-0.090866,-0.034819
0.104422,0.538385,0.756132,-9.518648,0.033139,-0.090866,-0.034819
0.108650,0.538385,0.756132,-9.518648,0.033139,-0.090866,-0.034208
0.112740,0.582652,0.760918,-9.485149,0.032376,-0.088575,-0.034208
0.116821,0.582652,0.760918,-9.485149,0.032376,-0.088575,-0.034208
0.120898,0.575474,0.756132,-9.506684,0.032376,-0.087201,-0.034056
0.124954,0.575474,0.756132,-9.506684,0.032376,-0.087201,-0.034056
0.129168,0.575474,0.756132,-9.506684,0.029322,-0.085216,-0.032987
0.133224,0.583849,0.788435,-9.534202,0.029322,-0.085216,-0.032987
0.137300,0.583849,0.788435,-9.534202,0.029322,-0.085216,-0.032987
0.141373,0.586242,0.736989,-9.524630,0.030085,-0.085368,-0.031612
0.145653,0.586242,0.736989,-9.524630,0.030085,-0.085368,-0.031612
0.149861,0.573081,0.750150,-9.576076,0.032223,-0.089034,-0.034361
0.153935,0.573081,0.750150,-9.576076,0.032223,-0.089034,-0.034361
0.158029,0.573081,0.750150,-9.576076,0.032223,-0.089034,-0.034361
0.162080,0.570688,0.770489,-9.504291,0.035430,-0.092852,-0.036652
0.166228,0.570688,0.770489,-9.504291,0.035430,-0.092852,-0.036652
0.170378,0.606581,0.746561,-9.570094,0.031460,-0.088575,-0.034361
0.174678,0.606581,0.746561,-9.570094,0.031460,-0.088575,-0.034361
0.178762,0.606581,0.746561,-9.570094,0.031460,-0.089797,-0.035583
0.182820,0.607777,0.765703,-9.518648,0.032376,-0.089797,-0.035583
0.186917,0.607777,0.765703,-9.518648,0.032376,-0.089797,-0.035583
0.191042,0.594616,0.775275,-9.525827,0.035277,-0.093921,-0.036041
0.195357,0.594616,0.775275,-9.525827,0.035277,-0.093921,-0.036041
0.199497,0.594616,0.775275,-9.509077,0.035888,-0.092088,-0.035736
0.203622,0.555135,0.751346,-9.509077,0.035888,-0.092088,-0.035736
0.209182,0.555135,0.751346,-9.509077,0.034972,-0.092852,-0.036194
0.213750,0.587438,0.770489,-9.523434,0.034972,-0.092852,-0.036194
0.217854,0.587438,0.770489,-9.523434,0.034972,-0.092852,-0.036194
0.221916,0.586242,0.763310,-9.527023,0.033903,-0.092852,-0.034819
0.226015,0.586242,0.763310,-9.527023,0.033903,-0.092852,-0.034819
0.230191,0.605384,0.775275,-9.548559,0.034667,-0.089034,-0.036346
0.234881,0.605384,0.775275,-9.548559,0.034667,-0.089034,-0.036346
0.239024,0.605384,0.775275,-9.548559,0.036194,-0.093921,-0.038790
0.243081,0.588634,0.766900,-9.571290,0.036194,-0.093921,-0.038790
0.247535,0.588634,0.766900,-9.571290,0.036194,-0.093921,-0.038790
0.251720,0.605384,0.747757,-9.555737,0.037263,-0.095142,-0.037721
0.255795,0.605384,0.747757,-9.555737,0.037263,-0.095142,-0.037721
0.259836,0.622134,0.764507,-9.521041,0.034819,-0.090713,-0.034972
0.263895,0.622134,0.764507,-9.521041,0.034819,-0.090713,-0.034972
0.267957,0.622134,0.764507,-9.521041,0.034819,-0.090713,-0.034972
0.272111,0.576670,0.752543,-9.527023,0.030696,-0.083994,-0.033139
0.276185,0.576670,0.752543,-9.527023,0.030696,-0.083994,-0.033139
0.280228,0.589831,0.739382,-9.506684,0.030391,-0.084452,-0.032834
0.284278,0.589831,0.739382,-9.506684,0.030391,-0.084452,-0.032834
0.288369,0.589831,0.739382,-9.506684,0.030391,-0.084452,-0.033292
0.292547,0.565903,0.778864,-9.550951,0.032070,-0.089797,-0.033292
0.296875,0.565903,0.778864,-9.550951,0.032070,-0.089797,-0.033292
0.300949,0.583849,0.752543,-9.542577,0.030849,-0.087354,-0.033445
0.305015,0.583849,0.752543,-9.542577,0.030849,-0.087354,-0.033445
0.309148,0.583849,0.752543,-9.542577,0.033139,-0.090561,-0.034514
0.313287,0.601795,0.757328,-9.513863,0.033139,-0.090561,-0.034514
0.317362,0.601795,0.757328,-9.513863,0.033139,-0.090561,-0.034514
0.321406,0.576670,0.763310,-9.528220,0.034514,-0.092393,-0.035583
0.325482,0.576670,0.763310,-9.528220,0.034514,-0.092393,-0.035583
0.329567,0.592224,0.747757,-9.530612,0.034361,-0.092393,-0.036652
0.333740,0.592224,0.747757,-9.530612,0.034361,-0.092393,-0.036652
0.337814,0.592224,0.747757,-9.530612,0.034361,-0.092393,-0.036652
0.341864,0.601795,0.754936,-9.516255,0.036499,-0.096364,-0.037263
0.346115,0.601795,0.754936,-9.516255,0.036499,-0.096364,-0.037263
0.350373,0.599402,0.770489,-9.559326,0.037110,-0.094990,-0.037874
0.354568,0.599402,0.770489,-9.559326,0.037110,-0.094990,-0.037874
0.358636,0.599402,0.770489,-9.559326,0.036499,-0.095448,-0.038943
0.362685,0.563510,0.745364,-9.531809,0.036499,-0.095448,-0.038943
0.366776,0.563510,0.745364,-9.531809,0.036499,-0.095448,-0.038943
0.370895,0.594616,0.760918,-9.555737,0.035277,-0.092393,-0.037874
0.375296,0.594616,0.760918,-9.555737,0.035277,-0.092393,-0.037874
0.379393,0.594616,0.756132,-9.519845,0.036499,-0.095600,-0.038026
0.383454,0.585045,0.756132,-9.519845,0.036499,-0.095600,-0.038026
0.387534,0.585045,0.756132,-9.519845,0.036499,-0.095600,-0.038026
0.391648,0.583849,0.745364,-9.549755,0.037568,-0.096059,-0.037415
0.396361,0.583849,0.745364,-9.549755,0.037568,-0.096059,-0.037415
0.400501,0.619741,0.747757,-9.560523,0.034972,-0.093921,-0.036957
0.404568,0.619741,0.747757,-9.560523,0.034972,-0.093921,-0.036957
0.408617,0.619741,0.747757,-9.560523,0.035736,-0.093004,-0.035736
0.412803,0.576670,0.757328,-9.519845,0.035736,-0.093004,-0.035736
0.416895,0.576670,0.757328,-9.519845,0.035736,-0.093004,-0.035736
0.420954,0.600598,0.760918,-9.541380,0.036194,-0.094379,-0.036957
0.425013,0.600598,0.760918,-9.541380,0.036194,-0.094379,-0.036957
0.429059,0.600598,0.760918,-9.537791,0.035583,-0.094837,-0.036499
0.433219,0.579063,0.745364,-9.537791,0.035583,-0.094837,-0.036499
0.437310,0.579063,0.745364,-9.537791,0.035583,-0.094837,-0.036499
0.441358,0.581456,0.772882,-9.570094,0.036499,-0.093157,-0.037263
0.445584,0.581456,0.772882,-9.570094,0.036499,-0.093157,-0.037263
0.449803,0.595813,0.760918,-9.533005,0.034514,-0.091783,-0.036957
0.453999,0.595813,0.760918,-9.533005,0.034514,-0.091783,-0.036957
0.458069,0.595813,0.760918,-9.533005,0.034514,-0.091783,-0.035888
0.462123,0.588634,0.750150,-9.544969,0.035430,-0.095906,-0.035888
0.466176,0.588634,0.750150,-9.544969,0.035430,-0.095906,-0.035888
0.470226,0.557528,0.746561,-9.515059,0.033139,-0.093004,-0.034819
0.474464,0.557528,0.746561,-9.515059,0.033139,-0.093004,-0.034819
0.478523,0.557528,0.746561,-9.515059,0.037263,-0.095142,-0.038026
0.482574,0.588634,0.774078,-9.534202,0.037263,-0.095142,-0.038026
0.486617,0.588634,0.774078,-9.534202,0.037263,-0.095142,-0.038026
0.490668,0.591027,0.766900,-9.495916,0.034819,-0.090866,-0.035430
0.494832,0.591027,0.766900,-9.495916,0.034819,-0.090866,-0.035430
0.499133,0.591027,0.754936,-9.518648,0.038026,-0.096517,-0.037721
0.503203,0.587438,0.754936,-9.518648,0.038026,-0.096517,-0.037721
0.507267,0.587438,0.754936,-9.518648,0.038026,-0.096517,-0.037721
0.511321,0.581456,0.752543,-9.499506,0.036499,-0.093004,-0.034972
0.515702,0.581456,0.752543,-9.499506,0.036499,-0.093004,-0.034972
0.519775,0.592224,0.756132,-9.559326,0.038026,-0.097433,-0.039706
0.523852,0.592224,0.756132,-9.559326,0.038026,-0.097433,-0.039706
0.527908,0.592224,0.756132,-9.559326,0.038026,-0.097433,-0.039706
0.531964,0.571885,0.744168,-9.530612,0.034972,-0.091172,-0.034972
0.536140,0.571885,0.744168,-9.530612,0.034972,-0.091172,-0.034972
0.540440,0.599402,0.762114,-9.583255,0.038943,-0.097128,-0.038332
0.544644,0.599402,0.762114,-9.583255,0.038943,-0.097128,-0.038332
0.554428,0.594616,0.699901,-9.547362,0.037721,-0.096975,-0.039706
0.563714,0.589831,0.790828,-9.553344,0.033903,-0.091324,-0.036652
0.572828,0.587438,0.659223,-9.477970,0.038026,-0.095295,-0.038790
0.582065,0.593420,0.733400,-9.657432,0.035888,-0.096059,-0.035430
0.591166,0.594616,0.727418,-9.519845,0.033139,-0.090408,-0.034208
0.600709,0.591027,0.805185,-9.812965,0.034514,-0.091477,-0.036499
0.610647,0.565903,0.807578,-9.591629,0.035277,-0.093157,-0.036346
0.619967,0.576670,0.709472,-9.395418,0.033445,-0.091172,-0.034361
0.629097,0.577867,0.646062,-9.402596,0.033292,-0.091172,-0.034819
0.638359,0.577867,0.762114,-9.554541,0.036194,-0.095448,-0.036805
0.648215,0.593420,0.762114,-9.652646,0.031765,-0.084758,-0.033292
0.655894,0.580259,0.807578,-9.652646,0.031765,-0.084758,-0.033292
0.663408,0.595813,0.740579,-9.536594,0.036346,-0.093004,-0.036041
0.670925,0.570688,0.756132,-9.535398,0.034208,-0.089339,-0.037110
0.678423,0.570688,0.756132,-9.530612,0.040928,-0.102931,-0.040317
0.685892,0.551546,0.756132,-9.530612,0.040928,-0.102931,-0.040317
0.693295,0.582652,0.758525,-9.507881,0.038026,-0.099266,-0.038026
0.702042,0.589831,0.769292,-9.525827,0.032681,-0.089034,-0.036041
0.709549,0.569492,0.758525,-9.525827,0.033598,-0.091324,-0.034667
0.717102,0.569492,0.758525,-9.525827,0.031765,-0.090103,-0.034056
0.724625,0.581456,0.770489,-9.500702,0.031765,-0.090103,-0.034056
0.732055,0.583849,0.752543,-9.518648,0.030391,-0.085063,-0.033139
0.739583,0.577867,0.750150,-9.527023,0.030543,-0.085521,-0.032681
0.747233,0.577867,0.750150,-9.527023,0.031612,-0.088117,-0.034667
0.755685,0.597009,0.772882,-9.547362,0.031612,-0.088117,-0.034667
0.764201,0.593420,0.763310,-9.531809,0.031460,-0.086285,-0.033903
0.772401,0.576670,0.766900,-9.558130,0.035583,-0.095448,-0.036499
0.780752,0.581456,0.754936,-9.537791,0.032376,-0.088423,-0.033445
0.789004,0.595813,0.759721,-9.525827,0.031765,-0.084605,-0.033292
0.797175,0.595813,0.759721,-9.525827,0.034361,-0.091783,-0.035583
0.805822,0.574277,0.747757,-9.518648,0.034361,-0.091783,-0.038790
0.814104,0.611366,0.758525,-9.515059,0.037874,-0.098349,-0.038790
0.822474,0.555135,0.762114,-9.541380,0.034361,-0.092699,-0.036041
0.830794,0.586242,0.759721,-9.542577,0.030849,-0.087048,-0.032376
0.839745,0.581456,0.774078,-9.534202,0.034514,-0.092241,-0.034972
0.848173,0.581456,0.757328,-9.546166,0.034972,-0.095448,-0.037110
0.856698,0.600598,0.757328,-9.546166,0.032529,-0.089492,-0.035277
0.865069,0.571885,0.756132,-9.549755,0.032529,-0.089492,-0.035277
0.873313,0.608973,0.758525,-9.549755,0.040470,-0.101404,-0.038332
0.881535,0.622134,0.754936,-9.515059,0.029474,-0.087048,-0.031612
0.889890,0.573081,0.747757,-9.518648,0.033139,-0.089950,-0.032987
0.898148,0.573081,0.754936,-9.553344,0.035125,-0.093310,-0.034972
0.907019,0.581456,0.754936,-9.553344,0.033292,-0.087506,-0.034056
0.915220,0.564706,0.762114,-9.538987,0.033292,-0.087506,-0.034056
0.923574,0.591027,0.774078,-9.559326,0.030849,-0.083383,-0.032529
0.931909,0.571885,0.754936,-9.528220,0.034667,-0.091630,-0.036041
0.940089,0.564706,0.768096,-9.512666,0.040623,-0.100487,-0.038637
0.948479,0.583849,0.758525,-9.570094,0.034361,-0.093004,-0.034819
0.956343,0.583849,0.758525,-9.570094,0.034361,-0.098349,-0.038332
0.964135,0.581456,0.738186,-9.547362,0.037568,-0.098349,-0.038332
0.971701,0.571885,0.752543,-9.529416,0.036346,-0.095295,-0.038026
0.979198,0.597009,0.739382,-9.537791,0.038637,-0.098349,-0.039706
0.986727,0.597009,0.739382,-9.537791,0.036346,-0.093768,-0.036805
0.994224,0.591027,0.748953,-9.509077,0.036346,-0.093768,-0.036805
1.002758,0.568295,0.769292,-9.538987,0.032987,-0.087659,-0.034056
1.010821,0.601795,0.769292,-9.547362,0.034056,-0.091019,-0.034667
1.018257,0.587438,0.766900,-9.507881,0.035888,-0.093768,-0.035736
1.025785,0.587438,0.766900,-9.507881,0.035888,-0.093768,-0.037263
1.033372,0.564706,0.752543,-9.529416,0.039401,-0.100335,-0.037263
1.040864,0.588634,0.775275,-9.562916,0.036346,-0.094379,-0.036805
1.048429,0.575474,0.746561,-9.495916,0.032376,-0.085827,-0.034056
1.056337,0.575474,0.746561,-9.495916,0.036194,-0.093462,-0.037721
1.063787,0.585045,0.748953,-9.503095,0.036194,-0.093462,-0.037721
1.071436,0.571885,0.744168,-9.531809,0.036805,-0.094379,-0.038026
1.078907,0.616152,0.758525,-9.531809,0.030238,-0.082009,-0.031612
1.087042,0.616152,0.758525,-9.531809,0.031154,-0.086437,-0.034056
1.094627,0.593420,0.752543,-9.554541,0.031154,-0.086437,-0.034056
1.102686,0.600598,0.756132,-9.558130,0.034667,-0.091172,-0.036041
1.110480,0.577867,0.752543,-9.523434,0.036652,-0.093310,-0.038485
1.118008,0.593420,0.771685,-9.537791,0.035736,-0.092546,-0.035430
1.125432,0.593420,0.771685,-9.537791,0.035736,-0.092546,-0.035430
1.133179,0.585045,0.756132,-9.527023,0.036805,-0.093157,-0.036957
1.141220,0.563510,0.765703,-9.555737,0.037874,-0.096975,-0.036346
1.148902,0.602991,0.756132,-9.577272,0.031612,-0.087506,-0.034208
1.157310,0.602991,0.756132,-9.499506,0.033903,-0.090561,-0.035888
1.164801,0.589831,0.750150,-9.499506,0.033903,-0.090561,-0.035888
1.173019,0.593420,0.750150,-9.534202,0.036805,-0.094531,-0.037874
1.180500,0.562313,0.762114,-9.501899,0.041386,-0.101251,-0.041386
1.187972,0.592224,0.736989,-9.519845,0.042761,-0.106443,-0.042302
1.195597,0.592224,0.736989,-9.519845,0.042761,-0.106443,-0.038790
1.204505,0.605384,0.753739,-9.547362,0.040317,-0.100793,-0.038790
1.214437,0.604188,0.740579,-9.549755,0.036805,-0.094073,-0.036652
1.222333,0.605384,0.758525,-9.546166,0.033598,-0.090255,-0.034208
1.229797,0.571885,0.756132,-9.548559,0.035430,-0.092241,-0.035430
1.237482,0.571885,0.757328,-9.530612,0.035583,-0.094684,-0.035736
1.244921,0.562313,0.757328,-9.530612,0.035583,-0.094684,-0.035736
1.253848,0.598206,0.738186,-9.518648,0.034972,-0.095906,-0.034972
1.261621,0.570688,0.747757,-9.525827,0.035583,-0.091324,-0.036194
1.269107,0.587438,0.750150,-9.530612,0.039248,-0.097128,-0.038332
1.276691,0.587438,0.750150,-9.530612,0.033598,-0.087812,-0.035888
1.284158,0.583849,0.753739,-9.507881,0.033598,-0.087812,-0.035888
1.291610,0.592224,0.741775,-9.513863,0.034361,-0.090103,-0.036041
1.299249,0.563510,0.771685,-9.554541,0.034819,-0.093921,-0.033445
1.306917,0.563510,0.771685,-9.554541,0.033903,-0.090255,-0.034056
1.314525,0.582652,0.769292,-9.560523,0.033903,-0.090255,-0.034056
1.322021,0.573081,0.758525,-9.535398,0.031460,-0.085521,-0.033445
1.329496,0.591027,0.768096,-9.528220,0.040623,-0.102167,-0.039554
1.337121,0.591027,0.768096,-9.491131,0.036194,-0.092241,-0.034514
1.344610,0.569492,0.762114,-9.491131,0.036194,-0.092241,-0.034514
1.352264,0.581456,0.759721,-9.560523,0.035888,-0.092088,-0.036805
1.360812,0.593420,0.764507,-9.555737,0.032223,-0.085979,-0.034667
1.369052,0.589831,0.754936,-9.498309,0.035125,-0.090255,-0.035736
1.378076,0.604188,0.746561,-9.538987,0.036499,-0.096211,-0.037110
1.386366,0.604188,0.746561,-9.538987,0.038485,-0.098807,-0.036346
1.394594,0.587438,0.759721,-9.521041,0.038485,-0.098807,-0.036346
1.402853,0.602991,0.738186,-9.565308,0.034819,-0.091324,-0.035125
1.411322,0.593420,0.745364,-9.543773,0.033598,-0.089339,-0.035125
1.419766,0.593420,0.775275,-9.535398,0.031765,-0.087354,-0.034361
1.428068,0.571885,0.748953,-9.546166,0.031001,-0.085674,-0.032070
1.436351,0.571885,0.748953,-9.546166,0.030849,-0.085827,-0.033292
1.444631,0.573081,0.774078,-9.540184,0.030849,-0.085827,-0.033292
1.452866,0.597009,0.748953,-9.510273,0.034056,-0.089644,-0.034667
1.461424,0.594616,0.759721,-9.529416,0.033445,-0.088881,-0.034819
1.469707,0.595813,0.751346,-9.492327,0.032529,-0.087048,-0.035277
1.478031,0.589831,0.759721,-9.559326,0.032529,-0.087506,-0.035125
1.486318,0.589831,0.759721,-9.559326,0.027031,-0.079871,-0.030696
1.494507,0.565903,0.777667,-9.501899,0.027031,-0.079871,-0.030696
1.503094,0.589831,0.765703,-9.541380,0.035583,-0.093615,-0.035277
1.511606,0.582652,0.752543,-9.493524,0.032529,-0.087201,-0.032681
1.519990,0.579063,0.753739,-9.522238,0.035736,-0.092393,-0.034819
1.528229,0.594616,0.768096,-9.519845,0.028405,-0.082009,-0.032070
1.536413,0.594616,0.768096,-9.519845,0.032070,-0.090103,-0.035583
1.544726,0.580259,0.757328,-9.548559,0.032070,-0.090103,-0.034514
1.552930,0.575474,0.751346,-9.530612,0.031918,-0.087201,-0.034514
1.561590,0.582652,0.751346,-9.493524,0.032223,-0.089034,-0.033598
1.569881,0.579063,0.757328,-9.504291,0.036957,-0.096517,-0.038179
1.578077,0.574277,0.760918,-9.515059,0.030391,-0.086590,-0.032223
1.586379,0.574277,0.760918,-9.580862,0.039248,-0.098655,-0.037568
1.594542,0.591027,0.765703,-9.580862,0.039248,-0.098655,-0.038790
1.603155,0.593420,0.742971,-9.530612,0.038026,-0.097280,-0.038790
1.611721,0.613759,0.759721,-9.498309,0.039248,-0.099571,-0.038943
1.619991,0.605384,0.771685,-9.524630,0.034208,-0.089950,-0.035430
1.628294,0.600598,0.746561,-9.555737,0.032070,-0.086285,-0.032834
1.636483,0.600598,0.746561,-9.522238,0.036041,-0.092852,-0.034972
1.644870,0.585045,0.770489,-9.522238,0.036041,-0.098502,-0.037263
1.653154,0.579063,0.754936,-9.559326,0.038637,-0.098502,-0.037263
1.661739,0.588634,0.765703,-9.544969,0.034056,-0.089339,-0.036805
1.670016,0.583849,0.760918,-9.492327,0.032376,-0.086896,-0.035125
1.678215,0.593420,0.756132,-9.538987,0.029169,-0.082620,-0.031612
1.686554,0.593420,0.759721,-9.536594,0.033903,-0.089492,-0.034361
1.694739,0.574277,0.759721,-9.536594,0.033903,-0.090713,-0.034208
1.703000,0.594616,0.758525,-9.507881,0.035277,-0.090713,-0.034208
1.711529,0.579063,0.733400,-9.549755,0.036805,-0.094531,-0.036805
1.719837,0.601795,0.766900,-9.544969,0.033445,-0.089950,-0.034208
1.728188,0.611366,0.753739,-9.558130,0.030391,-0.085063,-0.032376
1.736746,0.611366,0.758525,-9.513863,0.032376,-0.088270,-0.032987
1.745267,0.574277,0.758525,-9.513863,0.035888,-0.093615,-0.035125
1.753575,0.570688,0.754936,-9.535398,0.035888,-0.093615,-0.035125
1.761983,0.583849,0.753739,-9.544969,0.032681,-0.089644,-0.034056
1.770389,0.562313,0.774078,-9.522238,0.028863,-0.081856,-0.031154
1.779175,0.583849,0.764507,-9.558130,0.030849,-0.085521,-0.032376
1.787531,0.599402,0.759721,-9.550951,0.030849,-0.084452,-0.033445
1.795715,0.599402,0.759721,-9.550951,0.035125,-0.092393,-0.034208
1.803921,0.595813,0.757328,-9.553344,0.035125,-0.092393,-0.034208
1.812388,0.586242,0.728614,-9.544969,0.034972,-0.091324,-0.034514
1.820644,0.605384,0.765703,-9.529416,0.034208,-0.092852,-0.035583
1.829035,0.586242,0.766900,-9.518648,0.032681,-0.088117,-0.035125
1.837223,0.605384,0.751346,-9.566505,0.030391,-0.085063,-0.033292
1.845471,0.605384,0.751346,-9.566505,0.031307,-0.085521,-0.033445
1.853765,0.588634,0.768096,-9.574880,0.031307,-0.085521,-0.033445
1.862176,0.581456,0.758525,-9.506684,0.031001,-0.085521,-0.033445
1.870623,0.593420,0.784846,-9.540184,0.032529,-0.086896,-0.034056
1.878928,0.610170,0.756132,-9.527023,0.032987,-0.088881,-0.033598
1.887427,0.592224,0.758525,-9.482756,0.030696,-0.084299,-0.031765
1.895863,0.592224,0.758525,-9.522238,0.034819,-0.092241,-0.035888
1.904148,0.586242,0.759721,-9.522238,0.034819,-0.092241,-0.039859
1.912635,0.570688,0.752543,-9.495916,0.039248,-0.096517,-0.039859
1.920985,0.591027,0.752543,-9.524630,0.035736,-0.096669,-0.038179
1.929243,0.580259,0.750150,-9.504291,0.037415,-0.095142,-0.037263
1.937518,0.574277,0.786042,-9.509077,0.033750,-0.089797,-0.035430
1.945720,0.574277,0.786042,-9.509077,0.034972,-0.093157,-0.037721
1.954037,0.556331,0.757328,-9.500702,0.034972,-0.093157,-0.041844
1.962473,0.589831,0.762114,-9.562916,0.045051,-0.108276,-0.041844
1.970926,0.582652,0.746561,-9.533005,0.033903,-0.090255,-0.034667
1.979131,0.561117,0.760918,-9.548559,0.037874,-0.099266,-0.038485
1.987327,0.579063,0.771685,-9.536594,0.032376,-0.087965,-0.034056
1.995666,0.579063,0.771685,-9.536594,0.026725,-0.078343,-0.032223
2.003840,0.594616,0.762114,-9.564112,0.026725,-0.078343,-0.034972
2.012882,0.569492,0.757328,-9.540184,0.034208,-0.090103,-0.034972
2.021231,0.569492,0.753739,-9.527023,0.039248,-0.096975,-0.040012
2.029695,0.591027,0.765703,-9.525827,0.037110,-0.095295,-0.036957
2.038503,0.586242,0.748953,-9.523434,0.034208,-0.092699,-0.035277
2.046819,0.594616,0.756132,-9.525827,0.040164,-0.100029,-0.038179
2.055276,0.594616,0.756132,-9.525827,0.032987,-0.087048,-0.033445
2.063038,0.593420,0.745364,-9.542577,0.032987,-0.087048,-0.033445
2.070678,0.591027,0.760918,-9.541380,0.036346,-0.093462,-0.033903
2.078207,0.580259,0.756132,-9.523434,0.038026,-0.099418,-0.038790
2.085612,0.580259,0.756132,-9.523434,0.038790,-0.097891,-0.038943
2.093170,0.588634,0.759721,-9.522238,0.038790,-0.097891,-0.038943
2.100609,0.573081,0.747757,-9.534202,0.037110,-0.094531,-0.038179
2.108032,0.565903,0.754936,-9.570094,0.034514,-0.092852,-0.036499
2.115790,0.565903,0.754936,-9.544969,0.034972,-0.093004,-0.037721
2.123256,0.602991,0.756132,-9.544969,0.034972,-0.093004,-0.037721
2.130708,0.595813,0.766900,-9.535398,0.036805,-0.095448,-0.037110
2.138191,0.575474,0.740579,-9.524630,0.037874,-0.096975,-0.038179
2.145693,0.575474,0.740579,-9.554541,0.038485,-0.095448,-0.036652
2.153337,0.565903,0.759721,-9.554541,0.038485,-0.095448,-0.036652
2.161406,0.581456,0.769292,-9.505488,0.036041,-0.095142,-0.035125
2.170623,0.552742,0.739382,-9.548559,0.036041,-0.092393,-0.036499
2.178899,0.600598,0.750150,-9.512666,0.038943,-0.100945,-0.039706
2.187070,0.598206,0.753739,-9.500702,0.031918,-0.087812,-0.034056
2.195496,0.598206,0.753739,-9.541380,0.032987,-0.089186,-0.034972
2.203765,0.569492,0.744168,-9.541380,0.032987,-0.090561,-0.035277
2.214156,0.610170,0.754936,-9.538987,0.031460,-0.087965,-0.033292
2.223194,0.588634,0.766900,-9.522238,0.031460,-0.087965,-0.033292
2.231438,0.579063,0.753739,-9.499506,0.031612,-0.085979,-0.033139
2.239833,0.581456,0.760918,-9.533005,0.039859,-0.100945,-0.039401
2.248054,0.565903,0.763310,-9.510273,0.037568,-0.096364,-0.038485
2.256356,0.591027,0.758525,-9.523434,0.034056,-0.092393,-0.036499
2.264712,0.591027,0.758525,-9.523434,0.034514,-0.093157,-0.036499
2.273094,0.586242,0.759721,-9.540184,0.034514,-0.093157,-0.036499
2.281403,0.607777,0.748953,-9.503095,0.036652,-0.093768,-0.035888
2.289711,0.606581,0.754936,-9.546166,0.035430,-0.090561,-0.035277
2.298147,0.568295,0.750150,-9.559326,0.031001,-0.083841,-0.032834
2.306315,0.587438,0.753739,-9.522238,0.038332,-0.096975,-0.037263
2.314633,0.587438,0.753739,-9.522238,0.036805,-0.094226,-0.036194
2.322997,0.593420,0.763310,-9.559326,0.036805,-0.094226,-0.036194
2.331223,0.571885,0.776471,-9.553344,0.031307,-0.085674,-0.033139
2.339547,0.594616,0.764507,-9.524630,0.031765,-0.087201,-0.034361
2.347805,0.597009,0.774078,-9.547362,0.032987,-0.089797,-0.034972
2.356091,0.594616,0.763310,-9.544969,0.030238,-0.085674,-0.032834
2.364589,0.594616,0.763310,-9.544969,0.037874,-0.098197,-0.037415
2.373114,0.598206,0.754936,-9.535398,0.037874,-0.098197,-0.037110
2.381519,0.580259,0.746561,-9.471988,0.037568,-0.097738,-0.037110
2.389803,0.576670,0.757328,-9.489934,0.036957,-0.097128,-0.038179
2.398099,0.593420,0.765703,-9.570094,0.030849,-0.085674,-0.034056
2.406386,0.601795,0.770489,-9.550951,0.028100,-0.082467,-0.032223
2.414619,0.601795,0.770489,-9.550951,0.030085,-0.083689,-0.033445
2.423157,0.580259,0.734597,-9.489934,0.030085,-0.083689,-0.036957
2.431441,0.591027,0.762114,-9.592826,0.035888,-0.092088,-0.036957
2.439759,0.569492,0.741775,-9.506684,0.035277,-0.092699,-0.034667
2.448063,0.569492,0.756132,-9.525827,0.033445,-0.090561,-0.035277
2.456352,0.581456,0.762114,-9.517452,0.036346,-0.094531,-0.038637
2.464766,0.581456,0.762114,-9.517452,0.036041,-0.091477,-0.039248
2.473277,0.591027,0.744168,-9.534202,0.036041,-0.091477,-0.039554
2.481806,0.601795,0.758525,-9.541380,0.039554,-0.096059,-0.039554
2.490035,0.573081,0.764507,-9.533005,0.034819,-0.090103,-0.035430
2.498268,0.581456,0.750150,-9.542577,0.037110,-0.094226,-0.035888
2.506535,0.587438,0.766900,-9.580862,0.032223,-0.087506,-0.033292
2.514713,0.587438,0.766900,-9.580862,0.027642,-0.082161,-0.030696
2.523346,0.597009,0.753739,-9.522238,0.027642,-0.096517,-0.037263
2.531558,0.612563,0.750150,-9.552148,0.036957,-0.096517,-0.037263
2.540679,0.571885,0.733400,-9.524630,0.036499,-0.094226,-0.036957
2.548935,0.573081,0.754936,-9.555737,0.039706,-0.099876,-0.038790
2.557165,0.583849,0.752543,-9.512666,0.037721,-0.095295,-0.037874
2.566139,0.582652,0.747757,-9.536594,0.035888,-0.094837,-0.037415
2.575230,0.582652,0.762114,-9.541380,0.036499,-0.094990,-0.037110
2.583966,0.568295,0.762114,-9.541380,0.036499,-0.095142,-0.036652
2.592244,0.576670,0.745364,-9.560523,0.036499,-0.095142,-0.036652
2.600475,0.592224,0.750150,-9.486345,0.032376,-0.087965,-0.033139
2.608748,0.586242,0.758525,-9.571290,0.034514,-0.091019,-0.035125
2.617298,0.580259,0.759721,-9.536594,0.036346,-0.094073,-0.037568
2.625870,0.576670,0.754936,-9.515059,0.037415,-0.095142,-0.037263
2.634257,0.576670,0.754936,-9.515059,0.037263,-0.096364,-0.036957
2.643059,0.576670,0.758525,-9.558130,0.037263,-0.091172,-0.036041
2.651314,0.594616,0.754936,-9.567701,0.033903,-0.091172,-0.036041
2.659528,0.579063,0.751346,-9.578469,0.038790,-0.098197,-0.038026
2.668071,0.586242,0.751346,-9.530612,0.039554,-0.096822,-0.038943
2.676439,0.570688,0.757328,-9.543773,0.029169,-0.083230,-0.032987
2.684749,0.570688,0.757328,-9.586844,0.033292,-0.090255,-0.036805
2.693243,0.571885,0.771685,-9.586844,0.033292,-0.094837,-0.036652
2.701494,0.585045,0.768096,-9.535398,0.036805,-0.094837,-0.036652
2.709870,0.585045,0.753739,-9.497113,0.037263,-0.098044,-0.036805
2.718289,0.592224,0.760918,-9.568898,0.037721,-0.098349,-0.040317
2.726793,0.582652,0.764507,-9.566505,0.033292,-0.089339,-0.035430
2.735003,0.582652,0.766900,-9.549755,0.030543,-0.085216,-0.032987
2.743258,0.575474,0.766900,-9.549755,0.031001,-0.086590,-0.031154
2.751603,0.573081,0.747757,-9.512666,0.031001,-0.086590,-0.031154
2.759927,0.583849,0.740579,-9.516255,0.034056,-0.092088,-0.034667
2.768420,0.599402,0.744168,-9.552148,0.034972,-0.092241,-0.036041
2.776814,0.579063,0.762114,-9.498309,0.035583,-0.091324,-0.035736
2.785112,0.597009,0.740579,-9.494720,0.038790,-0.097433,-0.039859
2.793335,0.597009,0.740579,-9.494720,0.036805,-0.096669,-0.038485
2.801505,0.607777,0.747757,-9.542577,0.036805,-0.096669,-0.038485
2.809855,0.580259,0.759721,-9.521041,0.034667,-0.092546,-0.035277
2.818196,0.588634,0.756132,-9.542577,0.032987,-0.088575,-0.034208
2.826729,0.591027,0.753739,-9.504291,0.032529,-0.087354,-0.035125
2.834929,0.591027,0.769292,-9.524630,0.040775,-0.100945,-0.040164
2.843090,0.585045,0.769292,-9.524630,0.032681,-0.085368,-0.035583
2.851427,0.600598,0.774078,-9.546166,0.032681,-0.085368,-0.035583
2.859680,0.573081,0.758525,-9.576076,0.023213,-0.072846,-0.029016
2.867998,0.588634,0.758525,-9.540184,0.034208,-0.092088,-0.035583
2.876468,0.551546,0.762114,-9.515059,0.037874,-0.097280,-0.038026
2.884635,0.551546,0.764507,-9.533005,0.037874,-0.094990,-0.038179
2.892924,0.580259,0.764507,-9.533005,0.037874,-0.081856,-0.032529
2.901099,0.593420,0.745364,-9.482756,0.029169,-0.081856,-0.032529
2.909423,0.579063,0.745364,-9.572487,0.029627,-0.084758,-0.032070
2.917688,0.569492,0.746561,-9.566505,0.034819,-0.093768,-0.035583
2.926187,0.594616,0.763310,-9.559326,0.036957,-0.095600,-0.036499
2.934563,0.594616,0.765703,-9.556933,0.039095,-0.100029,-0.038637
2.943372,0.600598,0.765703,-9.556933,0.037415,-0.096975,-0.037263
2.951759,0.600598,0.768096,-9.511470,0.037415,-0.096975,-0.037263
2.959968,0.597009,0.765703,-9.550951,0.038179,-0.095753,-0.036194
2.968317,0.569492,0.771685,-9.541380,0.027031,-0.078649,-0.029016
2.977311,0.586242,0.764507,-9.541380,0.034667,-0.090408,-0.034208
2.985547,0.602991,0.734597,-9.518648,0.037263,-0.096517,-0.035888
2.993850,0.602991,0.734597,-9.518648,0.033292,-0.090866,-0.034819
3.002012,0.599402,0.756132,-9.547362,0.033292,-0.090866,-0.034819
3.010291,0.569492,0.760918,-9.535398,0.036652,-0.095906,-0.036805
3.018498,0.606581,0.752543,-9.562916,0.038790,-0.097586,-0.038637
3.027011,0.574277,0.757328,-9.522238,0.039554,-0.098655,-0.038943
3.035333,0.575474,0.768096,-9.541380,0.040317,-0.100335,-0.038637
3.043630,0.575474,0.768096,-9.541380,0.038179,-0.099266,-0.037874
3.051928,0.613759,0.747757,-9.552148,0.038179,-0.099266,-0.037874
3.060202,0.581456,0.766900,-9.558130,0.033445,-0.090866,-0.033598
3.068415,0.586242,0.744168,-9.553344,0.033139,-0.091172,-0.035430
3.076890,0.577867,0.757328,-9.573683,0.032376,-0.088575,-0.034972
3.085132,0.585045,0.752543,-9.560523,0.032529,-0.087201,-0.033445
3.093562,0.585045,0.752543,-9.560523,0.032223,-0.087812,-0.034361
3.101762,0.585045,0.748953,-9.552148,0.032223,-0.087812,-0.034361
3.109993,0.611366,0.748953,-9.517452,0.032529,-0.087048,-0.035277
3.118238,0.591027,0.757328,-9.552148,0.035125,-0.094073,-0.037110
3.126743,0.587438,0.763310,-9.518648,0.033445,-0.090408,-0.034972
3.135056,0.591027,0.753739,-9.554541,0.035888,-0.094531,-0.036957
3.143217,0.591027,0.753739,-9.554541,0.036805,-0.095142,-0.035888
3.151435,0.587438,0.754936,-9.506684,0.036805,-0.095142,-0.035888
3.159735,0.569492,0.751346,-9.549755,0.034514,-0.090866,-0.035583
3.167945,0.587438,0.753739,-9.522238,0.035736,-0.091324,-0.035736
3.176341,0.594616,0.747757,-9.540184,0.038332,-0.096211,-0.037721
3.184544,0.571885,0.754936,-9.559326,0.035888,-0.092546,-0.036194
3.192799,0.571885,0.754936,-9.559326,0.033139,-0.086896,-0.032834
3.201051,0.601795,0.764507,-9.552148,0.033139,-0.086896,-0.032834
3.211634,0.546760,0.760918,-9.515059,0.033292,-0.087659,-0.036957
3.220880,0.580259,0.763310,-9.504291,0.035583,-0.094379,-0.036957
3.229614,0.601795,0.753739,-9.524630,0.036041,-0.093921,-0.037110
3.238066,0.604188,0.759721,-9.518648,0.027642,-0.078954,-0.030543
3.246325,0.597009,0.744168,-9.570094,0.033750,-0.088423,-0.034514
3.254581,0.583849,0.768096,-9.560523,0.040623,-0.101404,-0.041081
3.262926,0.583849,0.768096,-9.560523,0.038485,-0.097433,-0.037568
3.271126,0.580259,0.739382,-9.509077,0.038485,-0.097433,-0.037568
3.279681,0.595813,0.760918,-9.541380,0.030543,-0.083078,-0.031918
3.287987,0.595813,0.759721,-9.538987,0.030085,-0.081092,-0.031460
3.296502,0.580259,0.754936,-9.530612,0.035125,-0.090561,-0.035736
3.304733,0.570688,0.729811,-9.547362,0.035888,-0.093310,-0.036805
3.312918,0.570688,0.729811,-9.547362,0.035736,-0.094531,-0.036805
3.321281,0.576670,0.758525,-9.542577,0.035736,-0.094531,-0.036805
3.329802,0.571885,0.746561,-9.497113,0.034514,-0.090713,-0.034361
3.338168,0.580259,0.746561,-9.540184,0.032834,-0.088117,-0.035125
3.346420,0.581456,0.777667,-9.531809,0.032223,-0.086590,-0.033292
3.354908,0.591027,0.752543,-9.506684,0.033903,-0.088270,-0.033750
3.364053,0.591027,0.759721,-9.521041,0.038485,-0.096517,-0.036805
3.371629,0.574277,0.759721,-9.521041,0.038485,-0.096517,-0.036346
3.380689,0.570688,0.757328,-9.553344,0.035277,-0.091019,-0.036346
3.388804,0.583849,0.754936,-9.537791,0.033598,-0.087659,-0.033292
3.396314,0.570688,0.759721,-9.556933,0.033598,-0.090103,-0.034514
3.403819,0.570688,0.770489,-9.540184,0.034819,-0.093157,-0.036041
3.411292,0.600598,0.770489,-9.540184,0.034819,-0.093157,-0.036041
3.418781,0.575474,0.744168,-9.537791,0.035277,-0.091783,-0.036805
3.426385,0.574277,0.758525,-9.511470,0.037721,-0.097891,-0.037874
3.433921,0.574277,0.751346,-9.525827,0.034361,-0.091477,-0.037415
3.441464,0.608973,0.751346,-9.525827,0.034361,-0.091477,-0.037415
3.448895,0.608973,0.778864,-9.565308,0.034667,-0.094073,-0.038485
3.456294,0.604188,0.753739,-9.513863,0.034667,-0.089034,-0.038943
3.463965,0.589831,0.751346,-9.506684,0.038485,-0.097280,-0.038485
3.472138,0.589831,0.751346,-9.506684,0.034514,-0.093768,-0.035430
3.480628,0.598206,0.763310,-9.577272,0.034514,-0.093768,-0.035430
3.488853,0.591027,0.744168,-9.516255,0.033903,-0.089034,-0.034208
3.497023,0.588634,0.756132,-9.544969,0.038179,-0.095142,-0.036041
3.505287,0.574277,0.756132,-9.567701,0.040164,-0.100793,-0.039095
3.513556,0.574277,0.756132,-9.525827,0.036041,-0.095448,-0.036652
3.521814,0.595813,0.756132,-9.525827,0.036041,-0.090255,-0.035277
3.530243,0.582652,0.747757,-9.523434,0.033598,-0.090255,-0.035277
3.539078,0.598206,0.766900,-9.527023,0.036499,-0.094990,-0.038485
3.548156,0.605384,0.753739,-9.505488,0.030543,-0.085368,-0.032987
3.556431,0.599402,0.771685,-9.535398,0.034819,-0.090255,-0.036499
3.564875,0.594616,0.771685,-9.528220,0.030849,-0.087812,-0.034208
3.572345,0.594616,0.771685,-9.528220,0.030391,-0.087812,-0.034056
3.580214,0.592224,0.763310,-9.533005,0.030391,-0.087812,-0.034056
3.587735,0.568295,0.751346,-9.549755,0.032376,-0.087659,-0.034361
3.595148,0.569492,0.760918,-9.571290,0.034667,-0.089644,-0.036957
3.603152,0.569492,0.760918,-9.510273,0.036346,-0.094379,-0.038026
3.610609,0.587438,0.760918,-9.510273,0.036346,-0.094379,-0.038026
3.618038,0.595813,0.759721,-9.541380,0.032834,-0.090103,-0.035583
3.625685,0.602991,0.739382,-9.518648,0.035430,-0.092088,-0.037263
3.633308,0.602991,0.739382,-9.509077,0.036041,-0.092546,-0.036346
3.640779,0.559920,0.756132,-9.509077,0.036041,-0.092546,-0.036346
3.648345,0.593420,0.735793,-9.527023,0.040012,-0.100029,-0.037568
3.655763,0.567099,0.750150,-9.537791,0.041539,-0.102778,-0.041233
3.663373,0.567099,0.751346,-9.511470,0.037415,-0.096822,-0.039095
3.671465,0.576670,0.751346,-9.511470,0.037415,-0.094990,-0.037721
3.680111,0.573081,0.748953,-9.515059,0.037721,-0.094990,-0.037721
3.689630,0.580259,0.757328,-9.578469,0.039401,-0.098044,-0.039859
3.698436,0.569492,0.754936,-9.538987,0.033598,-0.088575,-0.035888
3.706783,0.588634,0.765703,-9.565308,0.038332,-0.097586,-0.038485
3.714983,0.613759,0.757328,-9.534202,0.029932,-0.083078,-0.032987
3.723190,0.613759,0.741775,-9.558130,0.031460,-0.087506,-0.033598
3.731616,0.604188,0.741775,-9.558130,0.033445,-0.090561,-0.035583
3.739961,0.594616,0.748953,-9.503095,0.033445,-0.090561,-0.035583
3.748288,0.585045,0.753739,-9.576076,0.034667,-0.094073,-0.037415
3.756562,0.602991,0.750150,-9.531809,0.028100,-0.081856,-0.032987
3.765620,0.583849,0.747757,-9.509077,0.036499,-0.093310,-0.037568
3.773436,0.593420,0.747757,-9.549755,0.034056,-0.090866,-0.037263
3.781123,0.593420,0.747757,-9.549755,0.034056,-0.090866,-0.032223
3.788719,0.575474,0.774078,-9.547362,0.030849,-0.082620,-0.032223
3.796189,0.589831,0.754936,-9.530612,0.027794,-0.080940,-0.029780
3.803734,0.598206,0.765703,-9.565308,0.033903,-0.088728,-0.032681
3.811235,0.598206,0.765703,-9.565308,0.033903,-0.088728,-0.032987
3.818676,0.575474,0.742971,-9.541380,0.031307,-0.084452,-0.032987
3.826173,0.595813,0.752543,-9.534202,0.034667,-0.090561,-0.033292
3.834018,0.604188,0.748953,-9.517452,0.036652,-0.093462,-0.035736
3.842280,0.604188,0.748953,-9.517452,0.035125,-0.092546,-0.036957
3.850033,0.553938,0.759721,-9.512666,0.035125,-0.092546,-0.036957
3.857559,0.598206,0.740579,-9.568898,0.035277,-0.094684,-0.035125
3.865046,0.604188,0.764507,-9.523434,0.030543,-0.086590,-0.032223
3.872543,0.604188,0.764507,-9.523434,0.030696,-0.087506,-0.032376
3.880173,0.592224,0.748953,-9.530612,0.030696,-0.087506,-0.032376
3.887774,0.576670,0.758525,-9.525827,0.037263,-0.097433,-0.036957
3.895724,0.573081,0.766900,-9.507881,0.036041,-0.093921,-0.036346
3.903184,0.573081,0.758525,-9.531809,0.039248,-0.096669,-0.037415
3.910714,0.581456,0.758525,-9.531809,0.039248,-0.096669,-0.037415
3.918153,0.555135,0.762114,-9.500702,0.038637,-0.097128,-0.038485
3.925620,0.583849,0.742971,-9.524630,0.041844,-0.103694,-0.037874
3.933306,0.586242,0.764507,-9.548559,0.035277,-0.091477,-0.033445
3.940798,0.586242,0.764507,-9.548559,0.035277,-0.091477,-0.033445
3.948324,0.591027,0.770489,-9.529416,0.029169,-0.081551,-0.029627
3.955809,0.601795,0.772882,-9.523434,0.030391,-0.082620,-0.031001
3.963290,0.613759,0.757328,-9.546166,0.032376,-0.086285,-0.034208
3.971429,0.613759,0.757328,-9.546166,0.033598,-0.089797,-0.035430
3.979822,0.605384,0.729811,-9.499506,0.033598,-0.089797,-0.035430
3.988187,0.577867,0.753739,-9.531809,0.032376,-0.087506,-0.031765
3.996443,0.588634,0.752543,-9.559326,0.036499,-0.094531,-0.035888
4.004607,0.580259,0.765703,-9.536594,0.036805,-0.096669,-0.037568
4.012900,0.580259,0.748953,-9.547362,0.037263,-0.095448,-0.037721
4.021310,0.579063,0.748953,-9.547362,0.028405,-0.079871,-0.030696
4.029750,0.593420,0.756132,-9.560523,0.028405,-0.079871,-0.030696
4.038191,0.582652,0.771685,-9.577272,0.031001,-0.084758,-0.034056
4.046474,0.579063,0.772882,-9.562916,0.034514,-0.092699,-0.034972
4.054999,0.594616,0.771685,-9.589237,0.032834,-0.085674,-0.033750
4.063228,0.595813,0.757328,-9.555737,0.035125,-0.091630,-0.036194
4.071614,0.595813,0.757328,-9.555737,0.035888,-0.093615,-0.036041
4.080050,0.579063,0.753739,-9.535398,0.035888,-0.093615,-0.036041
4.088434,0.592224,0.739382,-9.536594,0.037110,-0.093768,-0.036652
4.096844,0.607777,0.747757,-9.546166,0.032681,-0.088728,-0.035888
4.105035,0.604188,0.751346,-9.579665,0.035583,-0.093310,-0.036499
4.113364,0.598206,0.768096,-9.542577,0.031154,-0.086132,-0.034361
4.121660,0.598206,0.768096,-9.542577,0.028711,-0.080481,-0.031460
4.130673,0.589831,0.765703,-9.533005,0.028711,-0.092546,-0.035736
4.139092,0.583849,0.759721,-9.507881,0.035277,-0.092546,-0.035736
4.147985,0.581456,0.754936,-9.474381,0.040775,-0.102320,-0.038943
4.156379,0.581456,0.760918,-9.560523,0.038943,-0.099418,-0.037415
4.164571,0.588634,0.757328,-9.568898,0.037110,-0.095142,-0.036805
4.172653,0.588634,0.765703,-9.521041,0.035125,-0.090408,-0.035277
4.180397,0.575474,0.765703,-9.521041,0.035125,-0.090408,-0.036041
4.188054,0.581456,0.768096,-9.550951,0.033139,-0.090866,-0.036041
4.195781,0.588634,0.753739,-9.486345,0.035736,-0.093921,-0.035888
4.203343,0.582652,0.763310,-9.554541,0.039401,-0.100487,-0.036957
4.212008,0.582652,0.763310,-9.554541,0.033598,-0.089339,-0.035125
4.219796,0.569492,0.764507,-9.512666,0.033598,-0.089339,-0.035125
4.227291,0.586242,0.765703,-9.574880,0.033139,-0.090561,-0.034667
4.235310,0.597009,0.752543,-9.542577,0.029322,-0.081856,-0.034056
4.242820,0.564706,0.753739,-9.548559,0.035583,-0.094684,-0.036805
4.250276,0.564706,0.753739,-9.548559,0.035583,-0.094684,-0.036805
4.257878,0.588634,0.766900,-9.555737,0.036346,-0.093157,-0.037568
4.265346,0.569492,0.766900,-9.533005,0.027794,-0.080481,-0.031460
4.273216,0.592224,0.744168,-9.497113,0.034208,-0.093310,-0.036652
4.281739,0.592224,0.744168,-9.497113,0.036194,-0.094990,-0.037110
4.290443,0.598206,0.733400,-9.504291,0.036194,-0.094073,-0.037721
4.298822,0.582652,0.776471,-9.564112,0.036194,-0.094073,-0.037721
4.307054,0.601795,0.763310,-9.498309,0.028863,-0.081398,-0.031612
4.315278,0.586242,0.738186,-9.528220,0.036499,-0.095448,-0.035736
4.323640,0.569492,0.780060,-9.531809,0.037415,-0.093921,-0.036499
4.332171,0.569492,0.753739,-9.540184,0.037110,-0.093921,-0.037721
4.340715,0.583849,0.753739,-9.540184,0.037263,-0.094073,-0.038943
4.348968,0.595813,0.760918,-9.536594,0.037263,-0.094073,-0.038943
4.357280,0.585045,0.762114,-9.525827,0.032987,-0.086132,-0.034972
4.365581,0.593420,0.751346,-9.529416,0.030238,-0.084147,-0.035430
4.373817,0.594616,0.762114,-9.524630,0.026573,-0.076358,-0.031001
4.382561,0.594616,0.751346,-9.562916,0.027794,-0.079718,-0.029474
4.390985,0.594616,0.751346,-9.562916,0.033292,-0.089186,-0.034667
4.399328,0.576670,0.752543,-9.513863,0.033292,-0.089186,-0.034667
4.407678,0.593420,0.753739,-9.573683,0.037721,-0.096517,-0.037415
4.415979,0.582652,0.759721,-9.566505,0.030543,-0.085216,-0.032834
4.424419,0.574277,0.757328,-9.576076,0.028863,-0.082772,-0.030391
4.433151,0.594616,0.741775,-9.548559,0.036499,-0.094226,-0.035888
4.442017,0.594616,0.762114,-9.577272,0.036805,-0.091477,-0.036805
4.450429,0.582652,0.762114,-9.577272,0.034056,-0.091935,-0.036041
4.458852,0.607777,0.762114,-9.501899,0.034056,-0.091935,-0.036041
4.467124,0.587438,0.774078,-9.521041,0.035125,-0.092699,-0.035277
4.475182,0.614955,0.762114,-9.515059,0.031612,-0.088423,-0.033445
4.483256,0.577867,0.748953,-9.553344,0.032987,-0.090713,-0.035583
4.490942,0.577867,0.748953,-9.553344,0.037110,-0.097586,-0.037263
4.498441,0.583849,0.759721,-9.530612,0.037110,-0.097586,-0.037263
4.505964,0.589831,0.760918,-9.515059,0.039095,-0.095600,-0.037874
4.513376,0.575474,0.758525,-9.524630,0.036041,-0.095906,-0.035888
4.520928,0.575474,0.758525,-9.524630,0.032681,-0.088881,-0.035125
4.528416,0.608973,0.771685,-9.540184,0.032681,-0.088881,-0.035125
4.537545,0.601795,0.728614,-9.528220,0.032376,-0.089644,-0.032834
4.545189,0.593420,0.758525,-9.534202,0.030391,-0.084452,-0.031765
4.552659,0.602991,0.748953,-9.501899,0.031612,-0.084910,-0.031765
4.560343,0.602991,0.748953,-9.501899,0.031612,-0.091019,-0.035125
4.568044,0.588634,0.748953,-9.533005,0.035277,-0.091019,-0.035125
4.576084,0.589831,0.769292,-9.566505,0.028711,-0.085216,-0.034056
4.584788,0.594616,0.739382,-9.498309,0.032376,-0.088117,-0.033750
4.593185,0.562313,0.771685,-9.558130,0.040928,-0.103389,-0.040470
4.601641,0.562313,0.770489,-9.578469,0.035277,-0.093157,-0.036805
4.609949,0.565903,0.770489,-9.578469,0.035277,-0.083994,-0.033292
4.618204,0.602991,0.752543,-9.552148,0.029016,-0.083994,-0.033292
4.626516,0.538385,0.774078,-9.525827,0.036041,-0.096211,-0.036805
4.634851,0.582652,0.742971,-9.540184,0.041997,-0.104458,-0.040164
4.643291,0.635294,0.748953,-9.530612,0.041539,-0.102625,-0.038485
4.651580,0.635294,0.763310,-9.553344,0.032223,-0.087659,-0.033750
4.659806,0.575474,0.763310,-9.553344,0.032223,-0.090561,-0.035430
4.668140,0.575474,0.748953,-9.521041,0.034056,-0.090561,-0.035430
4.676376,0.602991,0.758525,-9.537791,0.038332,-0.097738,-0.038026
4.684775,0.598206,0.770489,-9.513863,0.030849,-0.084758,-0.031918
4.693282,0.583849,0.758525,-9.492327,0.034208,-0.092393,-0.034972
4.701558,0.583849,0.766900,-9.517452,0.036957,-0.097891,-0.037110
4.710035,0.600598,0.766900,-9.517452,0.033445,-0.091477,-0.035125
4.718267,0.581456,0.753739,-9.534202,0.033445,-0.091477,-0.035125
4.726637,0.593420,0.748953,-9.513863,0.037721,-0.095906,-0.036499
4.735451,0.587438,0.776471,-9.536594,0.030238,-0.083078,-0.032529
4.744233,0.587438,0.751346,-9.546166,0.033139,-0.090713,-0.035736
4.752614,0.576670,0.754936,-9.553344,0.032987,-0.089950,-0.034972
4.760825,0.576670,0.754936,-9.553344,0.037874,-0.096059,-0.038943
4.769251,0.594616,0.764507,-9.523434,0.037874,-0.096059,-0.036499
4.777368,0.575474,0.753739,-9.538987,0.036805,-0.093462,-0.036499
4.784894,0.587438,0.768096,-9.504291,0.035736,-0.091477,-0.035125
4.793290,0.597009,0.762114,-9.524630,0.028863,-0.080023,-0.030696
4.800786,0.597009,0.762114,-9.524630,0.030849,-0.089186,-0.034972
4.808979,0.607777,0.746561,-9.558130,0.030849,-0.089186,-0.034972
4.816468,0.593420,0.717847,-9.535398,0.039248,-0.100793,-0.041233
4.823937,0.588634,0.740579,-9.519845,0.032987,-0.090713,-0.037721
4.831860,0.604188,0.740579,-9.586844,0.025045,-0.079565,-0.028100
4.840331,0.604188,0.740579,-9.586844,0.029627,-0.087048,-0.031918
4.847986,0.569492,0.711865,-9.482756,0.029627,-0.087048,-0.031918
4.855574,0.605384,0.738186,-9.568898,0.037415,-0.102473,-0.038943
4.863003,0.559920,0.859023,-9.448060,0.035277,-0.092393,-0.036957
4.870604,0.559920,0.859023,-9.448060,0.026725,-0.073609,-0.026725
4.878115,0.526421,0.870987,-9.582058,0.026725,-0.073609,-0.026725
4.885541,0.636491,0.781257,-9.512666,0.030849,-0.088728,-0.026114
4.893263,0.640080,0.823131,-9.548559,0.038637,-0.102778,-0.033903
4.900768,0.640080,0.823131,-9.548559,0.034361,-0.086437,-0.034514
4.908300,0.612563,0.794417,-9.495916,0.034361,-0.086437,-0.034514
4.915908,0.527617,0.757328,-9.517452,0.034056,-0.087354,-0.040012
4.923937,0.535992,0.711865,-9.511470,0.033903,-0.087048,-0.040164
4.931594,0.592224,0.740579,-9.592826,0.031918,-0.083383,-0.034819
4.939285,0.592224,0.740579,-9.592826,0.031918,-0.083383,-0.027336
4.946866,0.635294,0.734597,-9.531809,0.030543,-0.078343,-0.027336
4.954513,0.643669,0.717847,-9.548559,0.030391,-0.085216,-0.028711
4.961982,0.582652,0.709472,-9.498309,0.030085,-0.088117,-0.034667
4.969548,0.582652,0.709472,-9.498309,0.030085,-0.097128,-0.032223
4.977461,0.507278,0.727418,-9.559326,0.034819,-0.097128,-0.032223
4.985680,0.597009,0.727418,-9.505488,0.033292,-0.092852,-0.026878
4.994278,0.655633,0.735793,-9.541380,0.029627,-0.085827,-0.027489
5.002533,0.632902,0.776471,-9.518648,0.032529,-0.087048,-0.034819
5.010844,0.632902,0.776471,-9.535398,0.039859,-0.096211,-0.045357
5.019094,0.580259,0.772882,-9.535398,0.039859,-0.089644,-0.045968
5.027267,0.532403,0.788435,-9.488738,0.037568,-0.089644,-0.045968
5.035619,0.593420,0.792024,-9.566505,0.040317,-0.091935,-0.045509
5.044095,0.533599,0.772882,-9.475577,0.033445,-0.083841,-0.041386
5.052458,0.613759,0.762114,-9.525827,0.028253,-0.082314,-0.033139
5.060717,0.613759,0.762114,-9.566505,0.027184,-0.079412,-0.029322
5.068900,0.567099,0.781257,-9.566505,0.027184,-0.079412,-0.029932
5.077238,0.593420,0.796810,-9.497113,0.033139,-0.090713,-0.029932
5.085473,0.605384,0.766900,-9.565308,0.033598,-0.093615,-0.028711
5.093931,0.592224,0.768096,-9.499506,0.034208,-0.091935,-0.032376
5.102175,0.549153,0.766900,-9.535398,0.037568,-0.098502,-0.036346
5.110352,0.549153,0.766900,-9.535398,0.035430,-0.093462,-0.033598
5.118779,0.589831,0.740579,-9.546166,0.035430,-0.093462,-0.032529
5.127049,0.617348,0.732204,-9.547362,0.034056,-0.094990,-0.032529
5.135384,0.607777,0.752543,-9.523434,0.036805,-0.098807,-0.034972
5.143821,0.564706,0.717847,-9.519845,0.034208,-0.090866,-0.032529
5.152151,0.593420,0.708275,-9.517452,0.035125,-0.091324,-0.037263
5.160548,0.593420,0.708275,-9.548559,0.033292,-0.088728,-0.039401
5.168772,0.570688,0.784846,-9.548559,0.033292,-0.088728,-0.032529
5.177122,0.575474,0.739382,-9.533005,0.029169,-0.083536,-0.032529
5.185316,0.580259,0.725025,-9.452846,0.030391,-0.083383,-0.032834
5.193820,0.595813,0.784846,-9.659825,0.031765,-0.088423,-0.038485
5.202114,0.616152,0.758525,-9.562916,0.033292,-0.095753,-0.036805
5.211206,0.573081,0.757328,-9.517452,0.034819,-0.088270,-0.031918
5.220072,0.573081,0.757328,-9.517452,0.032987,-0.091172,-0.031918
5.228295,0.565903,0.796810,-9.542577,0.032987,-0.091172,-0.031918
5.236679,0.601795,0.795614,-9.560523,0.032834,-0.097433,-0.032987
5.245074,0.617348,0.758525,-9.497113,0.029627,-0.082620,-0.030238
5.253394,0.576670,0.777667,-9.511470,0.039401,-0.093157,-0.038637
5.261771,0.580259,0.770489,-9.493524,0.039401,-0.096517,-0.040317
5.269992,0.580259,0.770489,-9.493524,0.037721,-0.094379,-0.041081
5.278352,0.580259,0.744168,-9.500702,0.037721,-0.094379,-0.036957
5.286671,0.586242,0.742971,-9.536594,0.036652,-0.088728,-0.036957
5.295156,0.588634,0.757328,-9.550951,0.037263,-0.092852,-0.036041
5.303520,0.563510,0.739382,-9.541380,0.033292,-0.093004,-0.034514
5.311732,0.581456,0.741775,-9.523434,0.031918,-0.087201,-0.031307
5.320693,0.581456,0.753739,-9.500702,0.034361,-0.089186,-0.031001
5.328950,0.613759,0.753739,-9.500702,0.033903,-0.091477,-0.033598
5.337518,0.593420,0.759721,-9.517452,0.033903,-0.091477,-0.033598
5.346202,0.614955,0.757328,-9.515059,0.035888,-0.095142,-0.036652
5.354561,0.582652,0.760918,-9.521041,0.034514,-0.090408,-0.036957
5.362908,0.570688,0.758525,-9.524630,0.033292,-0.087354,-0.036041
5.371156,0.591027,0.769292,-9.535398,0.030849,-0.086132,-0.034667
5.379447,0.591027,0.769292,-9.535398,0.037721,-0.098960,-0.039554
5.387846,0.577867,0.765703,-9.512666,0.037721,-0.098960,-0.039554
5.396309,0.559920,0.764507,-9.542577,0.035583,-0.093004,-0.036346
5.404620,0.552742,0.752543,-9.537791,0.036041,-0.093004,-0.034514
5.412866,0.588634,0.751346,-9.486345,0.035430,-0.093004,-0.034514
5.421146,0.586242,0.757328,-9.570094,0.035277,-0.091630,-0.035888
5.429500,0.586242,0.757328,-9.570094,0.033292,-0.085216,-0.033903
5.437760,0.565903,0.771685,-9.541380,0.033292,-0.085216,-0.033903
5.446270,0.588634,0.756132,-9.527023,0.033445,-0.088117,-0.035583
5.454510,0.591027,0.760918,-9.544969,0.034056,-0.093004,-0.036957
5.462838,0.577867,0.751346,-9.529416,0.039095,-0.100182,-0.038637
5.471070,0.574277,0.756132,-9.549755,0.042608,-0.105222,-0.038179
5.479335,0.574277,0.756132,-9.549755,0.036957,-0.096364,-0.035125
5.487821,0.599402,0.747757,-9.547362,0.036957,-0.096364,-0.035125
5.496470,0.595813,0.758525,-9.515059,0.033139,-0.089492,-0.036652
5.504883,0.573081,0.769292,-9.534202,0.030849,-0.084758,-0.033903
5.513103,0.607777,0.764507,-9.560523,0.030849,-0.085368,-0.034056
5.521444,0.581456,0.760918,-9.519845,0.031918,-0.086896,-0.034667
5.529812,0.581456,0.760918,-9.534202,0.030238,-0.083689,-0.034361
5.538057,0.592224,0.760918,-9.534202,0.030238,-0.083689,-0.035430
5.546615,0.585045,0.775275,-9.515059,0.031460,-0.086437,-0.035430
5.554975,0.580259,0.762114,-9.548559,0.038637,-0.096975,-0.038637
5.563297,0.587438,0.771685,-9.515059,0.037721,-0.096822,-0.038026
5.571619,0.602991,0.776471,-9.531809,0.029780,-0.084147,-0.033598
5.579847,0.602991,0.776471,-9.568898,0.029322,-0.082314,-0.031918
5.588184,0.599402,0.750150,-9.568898,0.029322,-0.091019,-0.036041
5.596540,0.592224,0.751346,-9.529416,0.034361,-0.091019,-0.036041
5.604918,0.580259,0.747757,-9.537791,0.035125,-0.093462,-0.037263
5.613558,0.589831,0.768096,-9.543773,0.036957,-0.096211,-0.037568
5.621770,0.586242,0.757328,-9.564112,0.035430,-0.093004,-0.035736
5.630112,0.586242,0.758525,-9.533005,0.031765,-0.088117,-0.032376
5.639085,0.574277,0.758525,-9.533005,0.032529,-0.087812,-0.034056
5.647943,0.571885,0.745364,-9.559326,0.032529,-0.087812,-0.033292
5.656194,0.575474,0.774078,-9.548559,0.032070,-0.085521,-0.033292
5.664515,0.581456,0.801596,-9.525827,0.034514,-0.085827,-0.032681
5.672797,0.569492,0.818345,-9.547362,0.032681,-0.086743,-0.031918
5.681065,0.674776,0.793221,-9.471988,0.035277,-0.094226,-0.030391
5.689480,0.674776,0.793221,-9.475577,0.041386,-0.108429,-0.038943
5.697973,0.620937,0.719043,-9.475577,0.041386,-0.100335,-0.038790
5.706289,0.543171,0.714258,-9.556933,0.038332,-0.100335,-0.038790
5.714548,0.599402,0.763310,-9.567701,0.033139,-0.087048,-0.029627
5.723352,0.559920,0.731007,-9.542577,0.029474,-0.085216,-0.023824
5.731694,0.646062,0.668794,-9.558130,0.030238,-0.087354,-0.029474
5.739892,0.646062,0.750150,-9.549755,0.038026,-0.096059,-0.039401
5.748322,0.557528,0.750150,-9.549755,0.032529,-0.085063,-0.035125
5.756658,0.561117,0.759721,-9.488738,0.032529,-0.085063,-0.035125
5.764936,0.601795,0.719043,-9.566505,0.037874,-0.101098,-0.036805
5.773321,0.589831,0.736989,-9.555737,0.031765,-0.082925,-0.033750
5.781626,0.527617,0.803988,-9.550951,0.036346,-0.090866,-0.040164
5.789910,0.527617,0.713061,-9.498309,0.036652,-0.099724,-0.036346
5.798297,0.595813,0.713061,-9.498309,0.034972,-0.093157,-0.033750
5.806677,0.569492,0.774078,-9.517452,0.034972,-0.093157,-0.033750
5.815078,0.555135,0.820738,-9.571290,0.041233,-0.105374,-0.035277
5.823343,0.600598,0.757328,-9.413364,0.031918,-0.080329,-0.029932
5.831664,0.543171,0.741775,-9.647861,0.028100,-0.084299,-0.034514
5.839934,0.588634,0.777667,-9.452846,0.030849,-0.076969,-0.037874
5.848315,0.588634,0.777667,-9.452846,0.031001,-0.082009,-0.036805
5.856704,0.519243,0.782453,-9.507881,0.031001,-0.082009,-0.036805
5.864955,0.614955,0.711865,-9.529416,0.033139,-0.084452,-0.036805
5.873346,0.608973,0.741775,-9.603594,0.034667,-0.091324,-0.040623
5.881625,0.574277,0.727418,-9.546166,0.036041,-0.090866,-0.038637
5.889914,0.583849,0.721436,-9.546166,0.037110,-0.092393,-0.040775
5.898438,0.583849,0.721436,-9.546166,0.032223,-0.086285,-0.037568
5.906850,0.564706,0.754936,-9.513863,0.032223,-0.086285,-0.037568
5.915476,0.576670,0.769292,-9.562916,0.025045,-0.074220,-0.035277
5.923741,0.617348,0.728614,-9.527023,0.030543,-0.081703,-0.038332
5.931979,0.597009,0.764507,-9.548559,0.032987,-0.087354,-0.039859
5.940336,0.587438,0.781257,-9.571290,0.035888,-0.097280,-0.038637
5.948881,0.587438,0.781257,-9.571290,0.031460,-0.092088,-0.029169
5.957372,0.573081,0.775275,-9.538987,0.031460,-0.092088,-0.027336
5.965700,0.620937,0.763310,-9.580862,0.037568,-0.105680,-0.027336
5.974000,0.600598,0.780060,-9.544969,0.036346,-0.104458,-0.028558
5.982271,0.571885,0.753739,-9.507881,0.030696,-0.093768,-0.028863
5.990553,0.532403,0.771685,-9.562916,0.037263,-0.096669,-0.034514
5.999053,0.532403,0.771685,-9.578469,0.037110,-0.093768,-0.036652
6.007481,0.607777,0.764507,-9.578469,0.037110,-0.089339,-0.038943
6.015781,0.634098,0.720240,-9.512666,0.036194,-0.089339,-0.038943
6.024106,0.597009,0.763310,-9.497113,0.042608,-0.096059,-0.046884
6.032391,0.539581,0.747757,-9.535398,0.028863,-0.079412,-0.037721
6.040720,0.591027,0.704686,-9.498309,0.036652,-0.092241,-0.038179
6.049029,0.591027,0.704686,-9.586844,0.032681,-0.087201,-0.034361
6.057458,0.600598,0.763310,-9.586844,0.032681,-0.086743,-0.030085
6.065752,0.612563,0.727418,-9.477970,0.031612,-0.086743,-0.030085
6.073952,0.534796,0.762114,-9.577272,0.032681,-0.088117,-0.030238
6.082401,0.579063,0.781257,-9.503095,0.032070,-0.078191,-0.026573
6.090626,0.595813,0.836291,-9.530612,0.027031,-0.078496,-0.024893
6.099088,0.595813,0.823131,-9.568898,0.034514,-0.089339,-0.033139
6.107441,0.646062,0.823131,-9.568898,0.034514,-0.086437,-0.031307
6.115720,0.620937,0.794417,-9.515059,0.034514,-0.086437,-0.031307
6.124637,0.619741,0.735793,-9.511470,0.033750,-0.085216,-0.034667
6.132840,0.556331,0.716650,-9.512666,0.036041,-0.095906,-0.041844
6.141133,0.576670,0.692722,-9.530612,0.034819,-0.094073,-0.035430
6.149404,0.580259,0.692722,-9.516255,0.031307,-0.084452,-0.027031
6.157918,0.580259,0.692722,-9.516255,0.034667,-0.091019,-0.031612
6.166275,0.599402,0.735793,-9.535398,0.034667,-0.091019,-0.031612
6.174521,0.601795,0.752543,-9.504291,0.036041,-0.091172,-0.038943
6.182904,0.593420,0.801596,-9.558130,0.034514,-0.081092,-0.042150
6.191130,0.604188,0.776471,-9.544969,0.031460,-0.078343,-0.048564
6.199483,0.592224,0.750150,-9.509077,0.031154,-0.078802,-0.046884
6.208604,0.592224,0.750150,-9.506684,0.033445,-0.081092,-0.044593
6.217795,0.610170,0.781257,-9.506684,0.035430,-0.088423,-0.041997
6.226097,0.586242,0.796810,-9.577272,0.035430,-0.088423,-0.041997
6.234413,0.520439,0.802792,-9.492327,0.031612,-0.083078,-0.035277
6.243268,0.582652,0.835095,-9.571290,0.031612,-0.085063,-0.028711
6.251941,0.649651,0.817149,-9.588040,0.031918,-0.085979,-0.025351
6.260330,0.655633,0.780060,-9.525827,0.035736,-0.084910,-0.034056
6.268639,0.655633,0.780060,-9.615558,0.043219,-0.095295,-0.046120
6.276821,0.553938,0.636491,-9.615558,0.043219,-0.095295,-0.051313
6.285377,0.630509,0.711865,-9.494720,0.034208,-0.069791,-0.051313
6.292974,0.399601,0.701097,-9.498309,0.031460,-0.081092,-0.054062
6.300585,0.519243,0.683151,-9.483952,0.032987,-0.097280,-0.021838
6.308232,0.519243,0.683151,-9.483952,0.036194,-0.106138,-0.000764
6.315668,0.751346,0.829113,-9.486345,0.036194,-0.106138,-0.000764
6.323231,0.634098,0.847059,-9.582058,0.024893,-0.094990,0.006109
6.330786,0.732204,0.735793,-9.498309,0.031460,-0.085979,-0.007789
6.338234,0.732204,0.735793,-9.498309,0.033445,-0.094379,-0.034514
6.345855,0.551546,0.753739,-9.585647,0.033445,-0.094379,-0.034514
6.353439,0.474975,0.705883,-9.531809,0.032834,-0.082772,-0.041081
6.361123,0.497707,0.681954,-9.566505,0.036194,-0.093921,-0.038943
6.368694,0.497707,0.681954,-9.578469,0.035430,-0.087812,-0.031918
6.376122,0.632902,0.719043,-9.578469,0.035430,-0.087812,-0.031918
6.383818,0.684347,0.725025,-9.590433,0.033903,-0.093462,-0.032376
6.391849,0.659223,0.708275,-9.531809,0.036346,-0.096669,-0.035125
6.400047,0.519243,0.735793,-9.565308,0.030696,-0.089339,-0.031765
6.408591,0.519243,0.735793,-9.515059,0.033139,-0.092241,-0.030085
6.416871,0.506082,0.735793,-9.515059,0.033139,-0.097433,-0.031001
6.425231,0.586242,0.760918,-9.544969,0.034972,-0.097433,-0.031001
6.433581,0.685544,0.777667,-9.561719,0.038179,-0.096211,-0.040623
6.441774,0.604188,0.801596,-9.524630,0.028100,-0.076511,-0.041844
6.450096,0.543171,0.774078,-9.513863,0.036346,-0.087965,-0.049022
6.458562,0.543171,0.748953,-9.481560,0.039554,-0.098502,-0.041997
6.466947,0.568295,0.748953,-9.481560,0.039554,-0.104000,-0.033292
6.475250,0.625723,0.751346,-9.546166,0.041386,-0.104000,-0.033292
6.483572,0.605384,0.758525,-9.577272,0.033750,-0.091477,-0.024893
6.491917,0.605384,0.732204,-9.512666,0.033445,-0.091172,-0.028253
6.500098,0.571885,0.738186,-9.534202,0.035430,-0.094837,-0.035430
6.508741,0.571885,0.707079,-9.523434,0.033139,-0.089186,-0.037110
6.517643,0.589831,0.707079,-9.523434,0.037110,-0.097891,-0.038485
6.526053,0.642473,0.765703,-9.607183,0.037110,-0.097891,-0.038485
6.534387,0.644866,0.696311,-9.504291,0.038637,-0.092546,-0.040928
6.543220,0.616152,0.678365,-9.601201,0.035277,-0.102473,-0.041844
6.551767,0.507278,0.677169,-9.503095,0.036194,-0.102473,-0.037415
6.560323,0.576670,0.731007,-9.559326,0.040623,-0.110567,-0.027489
6.568684,0.582652,0.756132,-9.518648,0.038179,-0.108887,-0.023060
6.577028,0.582652,0.756132,-9.518648,0.033598,-0.104153,-0.031307
6.585335,0.648455,0.763310,-9.540184,0.033598,-0.104153,-0.031307
6.593696,0.612563,0.783649,-9.494720,0.034361,-0.100487,-0.038026
6.601929,0.534796,0.732204,-9.601201,0.032987,-0.089186,-0.041386
6.610426,0.498904,0.837488,-9.576076,0.032529,-0.077122,-0.035888
6.618778,0.673580,0.914058,-9.499506,0.028558,-0.075900,-0.028100
6.626999,0.673580,0.914058,-9.499506,0.027489,-0.079260,-0.029474
6.635386,0.713061,0.917647,-9.544969,0.027489,-0.079260,-0.029474
6.643622,0.518046,0.872184,-9.492327,0.032987,-0.078802,-0.035583
6.652281,0.568295,0.832702,-9.516255,0.042761,-0.105985,-0.038026
6.660844,0.666401,0.711865,-9.485149,0.042302,-0.102625,-0.037263
6.669188,0.599402,0.680758,-9.620343,0.038179,-0.099266,-0.045815
6.677584,0.599402,0.680758,-9.620343,0.031001,-0.084299,-0.048258
6.685839,0.579063,0.585045,-9.619147,0.031001,-0.084299,-0.048258
6.694261,0.555135,0.539581,-9.473185,0.030391,-0.080787,-0.053298
6.702473,0.521635,0.601795,-9.511470,0.038026,-0.094226,-0.060781
6.710980,0.571885,0.580259,-9.517452,0.032987,-0.091172,-0.052840
6.719298,0.654437,0.624527,-9.525827,0.031307,-0.087812,-0.050091
6.727562,0.654437,0.624527,-9.525827,0.027336,-0.078343,-0.044440
6.736023,0.662812,0.710668,-9.509077,0.027336,-0.078343,-0.046120
6.744258,0.611366,0.754936,-9.589237,0.032529,-0.095295,-0.046120
6.752577,0.585045,0.762114,-9.493524,0.034361,-0.100335,-0.045509
6.761038,0.598206,0.812363,-9.565308,0.027947,-0.078496,-0.043982
6.769273,0.662812,0.862613,-9.488738,0.035888,-0.082925,-0.055283
6.777694,0.662812,0.862613,-9.538987,0.033598,-0.072540,-0.066432
6.786055,0.659223,0.836291,-9.538987,0.033598,-0.072540,-0.073609
6.794337,0.594616,0.902094,-9.560523,0.028558,-0.055283,-0.073609
6.802656,0.561117,0.909273,-9.443274,0.031612,-0.051771,-0.076358
6.811058,0.478565,0.909273,-9.521041,0.037721,-0.068722,-0.076358
6.819505,0.495314,0.842274,-9.570094,0.034208,-0.077427,-0.056963
6.827817,0.495314,0.842274,-9.550951,0.038637,-0.091783,-0.036652
6.836174,0.546760,0.762114,-9.550951,0.038637,-0.097738,-0.025198
6.844404,0.620937,0.790828,-9.533005,0.040623,-0.097738,-0.025198
6.852673,0.582652,0.758525,-9.559326,0.045968,-0.120646,-0.025198
6.861158,0.637687,0.710668,-9.556933,0.040928,-0.107818,-0.020006
6.869392,0.553938,0.701097,-9.512666,0.030849,-0.094379,-0.016646
6.877898,0.553938,0.678365,-9.479167,0.034361,-0.094531,-0.024893
6.886149,0.564706,0.678365,-9.479167,0.034361,-0.092852,-0.032070
6.894401,0.557528,0.714258,-9.617950,0.033750,-0.092852,-0.032070
6.902714,0.575474,0.720240,-9.511470,0.034819,-0.093615,-0.030849
6.911299,0.631705,0.722632,-9.530612,0.031918,-0.094684,-0.024129
6.920284,0.613759,0.726222,-9.510273,0.032834,-0.096822,-0.019853
6.928602,0.650848,0.757328,-9.503095,0.033903,-0.103389,-0.018021
6.936978,0.650848,0.757328,-9.503095,0.035277,-0.105985,-0.024282
6.945222,0.653241,0.753739,-9.568898,0.035277,-0.105985,-0.024282
6.953405,0.607777,0.733400,-9.572487,0.038332,-0.101709,-0.039248
6.962183,0.528814,0.750150,-9.537791,0.032681,-0.078649,-0.045815
6.971287,0.540778,0.754936,-9.499506,0.033292,-0.081092,-0.045357
6.979902,0.617348,0.775275,-9.547362,0.034208,-0.086285,-0.043371
6.988399,0.597009,0.769292,-9.477970,0.033292,-0.085674,-0.036652
6.995630,0.597009,0.769292,-9.477970,0.033292,-0.085674,-0.036652
7.003065,0.632902,0.757328,-9.512666,0.029474,-0.080787,-0.026267
7.010486,0.563510,0.782453,-9.533005,0.034361,-0.094531,-0.025962
7.017498,0.563510,0.782453,-9.528220,0.038943,-0.107818,-0.021838
7.024439,0.573081,0.774078,-9.528220,0.038943,-0.107818,-0.021838
7.031252,0.532403,0.792024,-9.538987,0.035277,-0.098960,-0.015424
7.038101,0.576670,0.820738,-9.573683,0.033598,-0.097280,-0.014050
7.044969,0.576670,0.820738,-9.573683,0.033598,-0.097280,-0.014050
7.051808,0.608973,0.787239,-9.546166,0.033292,-0.096822,-0.021075
7.058675,0.631705,0.752543,-9.531809,0.036652,-0.098655,-0.029627
7.065713,0.631705,0.752543,-9.531809,0.036652,-0.098655,-0.029627
7.072535,0.588634,0.807578,-9.555737,0.035277,-0.094073,-0.030238
7.079455,0.668794,0.747757,-9.549755,0.034972,-0.083994,-0.029169
7.086336,0.668794,0.747757,-9.549755,0.034972,-0.082772,-0.037721
7.093177,0.553938,0.717847,-9.510273,0.034361,-0.082772,-0.037721
7.100044,0.539581,0.766900,-9.582058,0.034361,-0.086896,-0.035125
7.106943,0.539581,0.766900,-9.582058,0.033903,-0.092393,-0.029780
7.113990,0.575474,0.742971,-9.522238,0.033903,-0.092393,-0.029780
7.120927,0.617348,0.693919,-9.529416,0.031918,-0.095906,-0.019853
7.127781,0.617348,0.720240,-9.590433,0.036194,-0.100793,-0.025351
7.134608,0.637687,0.720240,-9.590433,0.036194,-0.100793,-0.025351
7.142025,0.669990,0.705883,-9.560523,0.036805,-0.099266,-0.033750
7.148953,0.568295,0.652044,-9.467203,0.034667,-0.091477,-0.036652
7.155802,0.568295,0.652044,-9.467203,0.034667,-0.091477,-0.034972
7.162771,0.570688,0.698704,-9.592826,0.034056,-0.086590,-0.034972
7.169641,0.551546,0.720240,-9.540184,0.032834,-0.088423,-0.031307
7.176432,0.551546,0.720240,-9.540184,0.032376,-0.096211,-0.031612
7.183314,0.579063,0.699901,-9.516255,0.032376,-0.096211,-0.031612
7.190303,0.638884,0.758525,-9.518648,0.034056,-0.091172,-0.027489
7.198462,0.620937,0.789631,-9.568898,0.032681,-0.086132,-0.025504
7.208097,0.628116,0.783649,-9.524630,0.033292,-0.089797,-0.035277
7.216830,0.628116,0.783649,-9.524630,0.029932,-0.079871,-0.043371
7.225219,0.545564,0.843470,-9.577272,0.029932,-0.079871,-0.046731
7.233461,0.531207,0.819542,-9.561719,0.033292,-0.080023,-0.046731
7.241863,0.597009,0.802792,-9.570094,0.031307,-0.082161,-0.042455
7.250197,0.598206,0.783649,-9.516255,0.032376,-0.085827,-0.040012
7.258388,0.571885,0.808774,-9.552148,0.036041,-0.094837,-0.026573
7.266804,0.571885,0.808774,-9.552148,0.037263,-0.102473,-0.012523
7.275014,0.619741,0.778864,-9.549755,0.037263,-0.102473,-0.013134
7.283956,0.636491,0.732204,-9.498309,0.037110,-0.104916,-0.013134
7.292256,0.646062,0.729811,-9.596415,0.039401,-0.106443,-0.027336
7.300451,0.592224,0.698704,-9.547362,0.036041,-0.091477,-0.041233
7.308809,0.544367,0.687936,-9.568898,0.031154,-0.073762,-0.053603
7.317255,0.544367,0.653241,-9.558130,0.035583,-0.079412,-0.060476
7.325672,0.571885,0.653241,-9.558130,0.036194,-0.092241,-0.055741
7.333969,0.616152,0.616152,-9.469595,0.036194,-0.092241,-0.055741
7.342139,0.687936,0.581456,-9.544969,0.038790,-0.108581,-0.045968
7.350456,0.649651,0.602991,-9.585647,0.039859,-0.109498,-0.038790
7.358650,0.610170,0.664008,-9.511470,0.032223,-0.099113,-0.026725
7.367223,0.610170,0.608973,-9.529416,0.034667,-0.097280,-0.036805
7.375547,0.597009,0.608973,-9.529416,0.038179,-0.095448,-0.054367
7.383735,0.549153,0.709472,-9.600004,0.038179,-0.095448,-0.054367
7.392141,0.654437,0.827917,-9.541380,0.033598,-0.069639,-0.065668
7.400341,0.628116,0.861416,-9.537791,0.027336,-0.054367,-0.073304
7.408603,0.618545,0.887737,-9.515059,0.029016,-0.059559,-0.074220
7.416986,0.618545,0.918844,-9.500702,0.027794,-0.067806,-0.060781
7.425284,0.561117,0.918844,-9.500702,0.027794,-0.085827,-0.047800
7.433637,0.552742,0.967897,-9.528220,0.034208,-0.085827,-0.047800
7.442542,0.501296,0.979861,-9.589237,0.033903,-0.097586,-0.030849
7.450970,0.626920,0.876969,-9.544969,0.037415,-0.097586,-0.021686
7.459169,0.614955,0.851845,-9.525827,0.037110,-0.094837,-0.029169
7.467638,0.607777,0.768096,-9.554541,0.034208,-0.088881,-0.040775
7.475980,0.607777,0.768096,-9.554541,0.033445,-0.080787,-0.045357
7.484167,0.553938,0.678365,-9.541380,0.033445,-0.080787,-0.045357
7.492552,0.530010,0.661615,-9.542577,0.034208,-0.079260,-0.043066
7.500804,0.588634,0.659223,-9.542577,0.036652,-0.090255,-0.033903
7.509048,0.632902,0.626920,-9.543773,0.034208,-0.102014,-0.021686
7.517442,0.667598,0.628116,-9.560523,0.034361,-0.109498,-0.014508
7.525720,0.667598,0.628116,-9.560523,0.036346,-0.111177,-0.016188
7.534080,0.607777,0.685544,-9.542577,0.036346,-0.111177,-0.016188
7.542270,0.547956,0.711865,-9.473185,0.031918,-0.102320,-0.019700
7.550580,0.558724,0.769292,-9.611968,0.033750,-0.104305,-0.029474
7.558836,0.574277,0.808774,-9.485149,0.032834,-0.084605,-0.035888
7.567233,0.614955,0.830309,-9.554541,0.033139,-0.092088,-0.038943
7.575703,0.614955,0.830309,-9.554541,0.036652,-0.095906,-0.034972
7.583903,0.646062,0.829113,-9.499506,0.036652,-0.095906,-0.034972
7.592225,0.632902,0.854238,-9.522238,0.035736,-0.092088,-0.031765
7.600469,0.607777,0.849452,-9.517452,0.036499,-0.105527,-0.030696
7.608636,0.552742,0.806381,-9.566505,0.032070,-0.095448,-0.025809
7.617076,0.545564,0.790828,-9.519845,0.030391,-0.082314,-0.025504
7.625401,0.545564,0.790828,-9.519845,0.032987,-0.089186,-0.029169
7.633731,0.530010,0.754936,-9.536594,0.032987,-0.089186,-0.029169
7.641979,0.574277,0.762114,-9.540184,0.036346,-0.095142,-0.033292
7.650166,0.636491,0.736989,-9.531809,0.033292,-0.086285,-0.029780
7.658718,0.655633,0.733400,-9.531809,0.035430,-0.092241,-0.031918
7.667006,0.643669,0.699901,-9.544969,0.029474,-0.085368,-0.026725
7.675408,0.643669,0.699901,-9.544969,0.031460,-0.094073,-0.026725
7.684295,0.588634,0.699901,-9.559326,0.031460,-0.094073,-0.025351
7.692622,0.544367,0.709472,-9.501899,0.029474,-0.088881,-0.025351
7.700941,0.588634,0.709472,-9.546166,0.027031,-0.083536,-0.027336
7.709123,0.612563,0.720240,-9.518648,0.033598,-0.090103,-0.034819
7.717586,0.666401,0.738186,-9.527023,0.031307,-0.082467,-0.036805
7.725920,0.666401,0.738186,-9.527023,0.036041,-0.084299,-0.046426
7.734226,0.612563,0.739382,-9.531809,0.036041,-0.084299,-0.055741
7.742503,0.556331,0.765703,-9.531809,0.040623,-0.088423,-0.055741
7.750768,0.532403,0.782453,-9.574880,0.035277,-0.090866,-0.047647
7.759176,0.561117,0.771685,-9.501899,0.035125,-0.087506,-0.034667
7.767550,0.579063,0.789631,-9.481560,0.036041,-0.096517,-0.028405
7.776006,0.579063,0.789631,-9.583255,0.042150,-0.110108,-0.026573
7.784321,0.636491,0.794417,-9.583255,0.042150,-0.110108,-0.025809
7.792506,0.565903,0.812363,-9.543773,0.037721,-0.104305,-0.025809
7.800872,0.587438,0.784846,-9.546166,0.035125,-0.094226,-0.024282
7.809056,0.555135,0.790828,-9.528220,0.031918,-0.089034,-0.027947
7.817342,0.592224,0.745364,-9.482756,0.036346,-0.093310,-0.033598
7.825800,0.592224,0.745364,-9.482756,0.035430,-0.091630,-0.033750
7.834008,0.594616,0.747757,-9.521041,0.035430,-0.091630,-0.034667
7.842355,0.634098,0.721436,-9.495916,0.037110,-0.093462,-0.034667
7.850539,0.604188,0.733400,-9.516255,0.035583,-0.095600,-0.032681
7.859392,0.586242,0.713061,-9.550951,0.032681,-0.097280,-0.027184
7.867722,0.555135,0.707079,-9.576076,0.032070,-0.093004,-0.026114
7.876220,0.555135,0.723829,-9.504291,0.038179,-0.104458,-0.031001
7.884567,0.557528,0.723829,-9.504291,0.038179,-0.098960,-0.027794
7.892759,0.591027,0.750150,-9.560523,0.035125,-0.098960,-0.027794
7.901154,0.608973,0.744168,-9.553344,0.032834,-0.094990,-0.027489
7.909401,0.616152,0.753739,-9.561719,0.035277,-0.098197,-0.029932
7.917732,0.624527,0.750150,-9.522238,0.034819,-0.095906,-0.033598
7.926182,0.624527,0.756132,-9.549755,0.030849,-0.088423,-0.031918
7.934394,0.582652,0.756132,-9.549755,0.030849,-0.094990,-0.031612
7.942834,0.563510,0.750150,-9.510273,0.032681,-0.094990,-0.031612
7.951072,0.602991,0.732204,-9.481560,0.037415,-0.102014,-0.032376
7.959342,0.780060,0.686740,-9.503095,0.039706,-0.103236,-0.037110
7.967726,0.605384,0.722632,-9.538987,0.033903,-0.078802,-0.053603
7.976161,0.605384,0.772882,-9.558130,0.032376,-0.078343,-0.063530
7.984491,0.289532,0.772882,-9.558130,0.034819,-0.097280,-0.044746
7.992678,0.507278,0.741775,-9.511470,0.034819,-0.097280,-0.044746
8.000961,0.699901,0.748953,-9.534202,0.034819,-0.090255,-0.029627
8.009280,0.728614,0.862613,-9.541380,0.036041,-0.099876,-0.037874
8.017512,0.620937,0.835095,-9.492327,0.031765,-0.091630,-0.037110
8.026028,0.620937,0.771685,-9.481560,0.034667,-0.094073,-0.034667
8.034240,0.477368,0.771685,-9.481560,0.038332,-0.100945,-0.033445
8.043115,0.477368,0.787239,-9.544969,0.038332,-0.100945,-0.033445
8.051414,0.608973,0.776471,-9.550951,0.040928,-0.107360,-0.030543
8.059919,0.632902,0.753739,-9.497113,0.039401,-0.094379,-0.033139
8.068277,0.588634,0.800399,-9.580862,0.034819,-0.079412,-0.036652
8.076782,0.565903,0.777667,-9.487542,0.029169,-0.078343,-0.036499
8.085770,0.565903,0.777667,-9.537791,0.034208,-0.087506,-0.038485
8.094021,0.606581,0.766900,-9.537791,0.034208,-0.088881,-0.033598
8.102301,0.538385,0.750150,-9.566505,0.036652,-0.088881,-0.033598
8.110626,0.587438,0.764507,-9.566505,0.034361,-0.090561,-0.026725
8.118871,0.618545,0.719043,-9.498309,0.036499,-0.100335,-0.029016
8.127416,0.636491,0.727418,-9.550951,0.036041,-0.096975,-0.032834
8.135690,0.636491,0.727418,-9.537791,0.037874,-0.095753,-0.038637
8.143932,0.601795,0.703490,-9.537791,0.037874,-0.096211,-0.042302
8.152224,0.597009,0.703490,-9.493524,0.038943,-0.096211,-0.042302
8.160423,0.586242,0.710668,-9.559326,0.036346,-0.092393,-0.043524
8.168765,0.586242,0.698704,-9.555737,0.031765,-0.084299,-0.037721
8.177212,0.595813,0.709472,-9.548559,0.029322,-0.087659,-0.036346
8.185515,0.595813,0.709472,-9.530612,0.029627,-0.082467,-0.035888
8.193805,0.606581,0.727418,-9.530612,0.029627,-0.086285,-0.038026
8.202079,0.592224,0.735793,-9.515059,0.031765,-0.086285,-0.038026
8.211563,0.582652,0.757328,-9.511470,0.034819,-0.091630,-0.038943
8.220604,0.570688,0.786042,-9.512666,0.038637,-0.101404,-0.042150
8.229401,0.573081,0.806381,-9.512666,0.031918,-0.087659,-0.036346
8.237783,0.593420,0.803988,-9.525827,0.035888,-0.095600,-0.038485
8.246053,0.601795,0.835095,-9.571290,0.030238,-0.085063,-0.035125
8.254341,0.601795,0.835095,-9.571290,0.033750,-0.088728,-0.035277
8.262508,0.591027,0.833899,-9.516255,0.033750,-0.088728,-0.035277
8.270840,0.571885,0.829113,-9.531809,0.039554,-0.099266,-0.035888
8.279286,0.565903,0.798006,-9.573683,0.036499,-0.092241,-0.031307
8.287663,0.577867,0.760918,-9.553344,0.035430,-0.094837,-0.030238
8.295952,0.587438,0.748953,-9.519845,0.038026,-0.096822,-0.033292
8.304185,0.587438,0.748953,-9.519845,0.037110,-0.098502,-0.032987
8.312479,0.556331,0.720240,-9.579665,0.037110,-0.098502,-0.032987
8.320716,0.585045,0.711865,-9.503095,0.033139,-0.091783,-0.026573
8.329168,0.540778,0.732204,-9.538987,0.034972,-0.097738,-0.023366
8.337692,0.630509,0.723829,-9.518648,0.039401,-0.104305,-0.021533
8.346231,0.666401,0.704686,-9.541380,0.034361,-0.099418,-0.026725
8.354599,0.666401,0.704686,-9.541380,0.038637,-0.103542,-0.040623
8.362832,0.599402,0.707079,-9.522238,0.038637,-0.103542,-0.040623
8.371126,0.507278,0.693919,-9.559326,0.036652,-0.092241,-0.046731
8.379563,0.524028,0.711865,-9.495916,0.033903,-0.085368,-0.048411
8.387812,0.612563,0.728614,-9.549755,0.036957,-0.089339,-0.044593
8.396142,0.630509,0.753739,-9.498309,0.035125,-0.088728,-0.039859
8.404378,0.630509,0.753739,-9.498309,0.040317,-0.102473,-0.043524
8.412686,0.625723,0.780060,-9.559326,0.040317,-0.102473,-0.043524
8.420966,0.576670,0.774078,-9.541380,0.033139,-0.094226,-0.037568
8.429415,0.538385,0.757328,-9.485149,0.034514,-0.098655,-0.034056
8.437800,0.598206,0.789631,-9.531809,0.038637,-0.101251,-0.036652
8.446019,0.610170,0.787239,-9.559326,0.035277,-0.087659,-0.037110
8.454304,0.610170,0.787239,-9.559326,0.030238,-0.076053,-0.040317
8.462583,0.647259,0.795614,-9.543773,0.030238,-0.076053,-0.040317
8.470774,0.662812,0.775275,-9.544969,0.027184,-0.072693,-0.041386
8.479308,0.613759,0.792024,-9.534202,0.033750,-0.081856,-0.047953
8.488243,0.564706,0.771685,-9.550951,0.034208,-0.083230,-0.044288
8.496586,0.528814,0.740579,-9.506684,0.038179,-0.094990,-0.041539
8.504859,0.528814,0.740579,-9.517452,0.037721,-0.098197,-0.034819
8.513106,0.547956,0.714258,-9.517452,0.037721,-0.098197,-0.032529
8.521412,0.587438,0.747757,-9.583255,0.036346,-0.094684,-0.032529
8.529940,0.625723,0.734597,-9.568898,0.031001,-0.087201,-0.031307
8.538286,0.599402,0.732204,-9.505488,0.034972,-0.093004,-0.036346
8.546523,0.570688,0.764507,-9.592826,0.031460,-0.089492,-0.035888
8.554758,0.570688,0.764507,-9.542577,0.032223,-0.091783,-0.033139
8.563027,0.564706,0.734597,-9.542577,0.032223,-0.091783,-0.029932
8.571251,0.565903,0.764507,-9.540184,0.034208,-0.094837,-0.029932
8.579763,0.622134,0.758525,-9.510273,0.032223,-0.093768,-0.029169
8.588085,0.598206,0.760918,-9.522238,0.036805,-0.097586,-0.033292
8.596426,0.600598,0.800399,-9.547362,0.032070,-0.086132,-0.035430
8.604717,0.600598,0.800399,-9.494720,0.034056,-0.089339,-0.040012
8.612922,0.582652,0.772882,-9.494720,0.034056,-0.089339,-0.041081
8.621252,0.555135,0.758525,-9.523434,0.036499,-0.094379,-0.041081
8.629589,0.598206,0.765703,-9.555737,0.032987,-0.085216,-0.037721
8.638000,0.592224,0.757328,-9.572487,0.030238,-0.081551,-0.032376
8.646283,0.614955,0.759721,-9.576076,0.033292,-0.088575,-0.031001
8.654526,0.614955,0.759721,-9.538987,0.033903,-0.089797,-0.030391
8.662845,0.597009,0.752543,-9.538987,0.033903,-0.089797,-0.027642
8.671052,0.597009,0.771685,-9.524630,0.030391,-0.082925,-0.027642
8.679409,0.581456,0.733400,-9.540184,0.034819,-0.095142,-0.033139
8.687757,0.571885,0.741775,-9.523434,0.038332,-0.100335,-0.036041
8.695947,0.598206,0.729811,-9.487542,0.031765,-0.089644,-0.034514
8.704526,0.598206,0.729811,-9.519845,0.034819,-0.093462,-0.037263
8.712807,0.586242,0.725025,-9.519845,0.034819,-0.093462,-0.037263
8.721150,0.601795,0.759721,-9.556933,0.036652,-0.095142,-0.037263
8.729566,0.612563,0.723829,-9.511470,0.029780,-0.082467,-0.032070
8.737976,0.582652,0.750150,-9.531809,0.036957,-0.094684,-0.036652
8.746265,0.577867,0.758525,-9.534202,0.029627,-0.084605,-0.031307
8.754455,0.577867,0.758525,-9.591629,0.033903,-0.093921,-0.036346
8.762809,0.593420,0.739382,-9.591629,0.033903,-0.091783,-0.036499
8.771007,0.568295,0.780060,-9.504291,0.034208,-0.091783,-0.036499
8.779293,0.599402,0.759721,-9.504291,0.035125,-0.091783,-0.036957
8.787665,0.614955,0.760918,-9.556933,0.033903,-0.090255,-0.033750
8.795878,0.593420,0.752543,-9.512666,0.039401,-0.101709,-0.035125
8.804213,0.593420,0.752543,-9.512666,0.039095,-0.097128,-0.034819
8.812454,0.586242,0.769292,-9.533005,0.039095,-0.097128,-0.035583
8.820727,0.563510,0.762114,-9.528220,0.038026,-0.100640,-0.035583
8.829092,0.587438,0.784846,-9.550951,0.035888,-0.090561,-0.034361
8.837508,0.607777,0.780060,-9.576076,0.032529,-0.087506,-0.035430
8.845863,0.592224,0.759721,-9.523434,0.031001,-0.078649,-0.034972
8.854107,0.592224,0.759721,-9.523434,0.036957,-0.094379,-0.041692
8.862377,0.595813,0.741775,-9.505488,0.036957,-0.094379,-0.038637
8.870625,0.587438,0.742971,-9.518648,0.034056,-0.089492,-0.038637
8.878921,0.573081,0.758525,-9.480363,0.028863,-0.079871,-0.032070
8.888036,0.569492,0.752543,-9.519845,0.037110,-0.096364,-0.035583
8.896330,0.617348,0.753739,-9.549755,0.038026,-0.099876,-0.034361
8.904656,0.617348,0.742971,-9.498309,0.033598,-0.090561,-0.032376
8.912944,0.577867,0.742971,-9.498309,0.034514,-0.090561,-0.037110
8.921130,0.580259,0.747757,-9.576076,0.034514,-0.090561,-0.037110
8.929582,0.601795,0.769292,-9.527023,0.030696,-0.082467,-0.035888
8.938304,0.595813,0.751346,-9.552148,0.029932,-0.081245,-0.038485
8.947044,0.588634,0.770489,-9.536594,0.038179,-0.093157,-0.044899
8.955334,0.567099,0.759721,-9.517452,0.033292,-0.083841,-0.038485
8.963760,0.567099,0.759721,-9.517452,0.036957,-0.096211,-0.035583
8.972057,0.592224,0.774078,-9.559326,0.036957,-0.096211,-0.035583
8.980388,0.564706,0.742971,-9.558130,0.032834,-0.091019,-0.029016
8.988827,0.585045,0.772882,-9.537791,0.036957,-0.100029,-0.030391
8.997150,0.579063,0.746561,-9.529416,0.032834,-0.094073,-0.026267
9.005442,0.581456,0.758525,-9.572487,0.038485,-0.099113,-0.035125
9.013808,0.581456,0.758525,-9.572487,0.036346,-0.096822,-0.038790
9.022131,0.606581,0.752543,-9.513863,0.036346,-0.096822,-0.038026
9.030655,0.585045,0.762114,-9.553344,0.032834,-0.086285,-0.038026
9.039077,0.579063,0.750150,-9.568898,0.030849,-0.085674,-0.037110
9.047392,0.595813,0.758525,-9.547362,0.037263,-0.096669,-0.040470
9.055701,0.598206,0.756132,-9.506684,0.032070,-0.088270,-0.032834
9.063891,0.598206,0.756132,-9.510273,0.037263,-0.098502,-0.033139
9.072206,0.576670,0.769292,-9.510273,0.037263,-0.098502,-0.033292
9.080445,0.618545,0.742971,-9.544969,0.036652,-0.096822,-0.033292
9.089043,0.595813,0.769292,-9.523434,0.035125,-0.093004,-0.034361
9.097317,0.588634,0.776471,-9.544969,0.036346,-0.091477,-0.038790
9.105566,0.586242,0.751346,-9.546166,0.034972,-0.086896,-0.039401
9.114030,0.586242,0.751346,-9.535398,0.034361,-0.088117,-0.038637
9.122350,0.617348,0.777667,-9.535398,0.034361,-0.089797,-0.035888
9.130733,0.600598,0.772882,-9.537791,0.034056,-0.089797,-0.035888
9.139199,0.558724,0.734597,-9.501899,0.033292,-0.089950,-0.033445
9.147554,0.585045,0.748953,-9.511470,0.034361,-0.093157,-0.028558
9.156252,0.599402,0.751346,-9.528220,0.035888,-0.099876,-0.029169
9.164495,0.611366,0.770489,-9.547362,0.031460,-0.090103,-0.027489
9.172873,0.611366,0.770489,-9.547362,0.038790,-0.097433,-0.035277
9.181094,0.629312,0.760918,-9.542577,0.038790,-0.097433,-0.035277
9.189575,0.604188,0.747757,-9.541380,0.036957,-0.093004,-0.039095
9.197992,0.569492,0.757328,-9.576076,0.025962,-0.075442,-0.035430
9.206721,0.546760,0.753739,-9.541380,0.028405,-0.082467,-0.034667
9.216221,0.600598,0.746561,-9.543773,0.032834,-0.090713,-0.034514
9.224011,0.600598,0.739382,-9.485149,0.036805,-0.094684,-0.036499
9.231602,0.592224,0.739382,-9.485149,0.036805,-0.094684,-0.036499
9.239715,0.598206,0.744168,-9.530612,0.030849,-0.087659,-0.030543
9.247464,0.588634,0.750150,-9.542577,0.034819,-0.094684,-0.034667
9.255115,0.543171,0.739382,-9.507881,0.034667,-0.091172,-0.036346
9.262619,0.543171,0.739382,-9.507881,0.036805,-0.093615,-0.040928
9.270093,0.597009,0.745364,-9.500702,0.036805,-0.093615,-0.040928
9.277720,0.597009,0.783649,-9.529416,0.032681,-0.086743,-0.040775
9.285953,0.599402,0.762114,-9.543773,0.030696,-0.081245,-0.041692
9.293596,0.599402,0.762114,-9.531809,0.033598,-0.087659,-0.041844
9.301140,0.573081,0.752543,-9.531809,0.033598,-0.087659,-0.041844
9.308589,0.581456,0.772882,-9.495916,0.035583,-0.093462,-0.040012
9.316173,0.568295,0.758525,-9.522238,0.036805,-0.096975,-0.037110
9.323689,0.568295,0.758525,-9.560523,0.033903,-0.090713,-0.034819
9.331168,0.597009,0.798006,-9.560523,0.033903,-0.090713,-0.034819
9.338985,0.573081,0.769292,-9.542577,0.034667,-0.089950,-0.034819
9.346479,0.580259,0.753739,-9.540184,0.042455,-0.100182,-0.042455
9.354062,0.594616,0.752543,-9.489934,0.038179,-0.096211,-0.040012
9.361622,0.594616,0.752543,-9.489934,0.038179,-0.096211,-0.040012
9.369093,0.577867,0.762114,-9.556933,0.034208,-0.090103,-0.039401
9.376658,0.575474,0.757328,-9.544969,0.036194,-0.089950,-0.040164
9.384447,0.565903,0.757328,-9.548559,0.035430,-0.090103,-0.037874
9.392045,0.565903,0.757328,-9.548559,0.035430,-0.092088,-0.038026
9.399622,0.568295,0.735793,-9.519845,0.035583,-0.092088,-0.038026
9.407124,0.570688,0.746561,-9.497113,0.038332,-0.100182,-0.037721
9.415009,0.600598,0.744168,-9.556933,0.039095,-0.099266,-0.036041
9.423285,0.600598,0.744168,-9.550951,0.033139,-0.087965,-0.035125
9.431529,0.579063,0.769292,-9.550951,0.033139,-0.087965,-0.037110
9.440111,0.571885,0.774078,-9.509077,0.034972,-0.086437,-0.037110
9.448338,0.557528,0.772882,-9.548559,0.034972,-0.089492,-0.036499
9.456624,0.600598,0.759721,-9.560523,0.032681,-0.089339,-0.036652
9.464877,0.571885,0.762114,-9.543773,0.034361,-0.090103,-0.037110
9.473068,0.571885,0.762114,-9.543773,0.036805,-0.093768,-0.036652
9.481404,0.593420,0.754936,-9.505488,0.036805,-0.093768,-0.032834
9.489835,0.571885,0.745364,-9.519845,0.032834,-0.088728,-0.032834
9.498156,0.583849,0.766900,-9.561719,0.039401,-0.102320,-0.036346
9.506413,0.591027,0.739382,-9.497113,0.038790,-0.102167,-0.036805
9.514641,0.602991,0.757328,-9.503095,0.036805,-0.097280,-0.035125
9.522953,0.602991,0.757328,-9.503095,0.029322,-0.086285,-0.031001
9.531167,0.583849,0.751346,-9.555737,0.029322,-0.086285,-0.036805
9.540131,0.583849,0.745364,-9.521041,0.034208,-0.093004,-0.036805
9.548380,0.577867,0.750150,-9.537791,0.034972,-0.093157,-0.036194
9.556688,0.604188,0.744168,-9.524630,0.034361,-0.093462,-0.037874
9.564976,0.588634,0.768096,-9.566505,0.036805,-0.095142,-0.036041
9.573169,0.588634,0.768096,-9.560523,0.034208,-0.088270,-0.035125
9.581581,0.568295,0.756132,-9.560523,0.034208,-0.089186,-0.032681
9.590505,0.563510,0.740579,-9.501899,0.033139,-0.089186,-0.032681
9.599060,0.589831,0.766900,-9.528220,0.035583,-0.094837,-0.035125
9.607472,0.601795,0.759721,-9.493524,0.029932,-0.085979,-0.034514
9.615786,0.589831,0.768096,-9.586844,0.035888,-0.091935,-0.038637
9.624173,0.573081,0.747757,-9.524630,0.028863,-0.077733,-0.035277
9.632434,0.573081,0.747757,-9.524630,0.032223,-0.084910,-0.036194
9.641173,0.589831,0.751346,-9.527023,0.032223,-0.084910,-0.033139
9.649479,0.582652,0.769292,-9.580862,0.030391,-0.083994,-0.033139
9.657812,0.598206,0.776471,-9.534202,0.027642,-0.076816,-0.031001
9.666102,0.592224,0.781257,-9.556933,0.031460,-0.084758,-0.034819
9.675002,0.612563,0.748953,-9.547362,0.033903,-0.088575,-0.034819
9.683340,0.612563,0.769292,-9.533005,0.034514,-0.089492,-0.033903
9.691837,0.588634,0.769292,-9.533005,0.030085,-0.083078,-0.030085
9.700128,0.579063,0.740579,-9.513863,0.030085,-0.083078,-0.030085
9.708415,0.585045,0.753739,-9.574880,0.035125,-0.095753,-0.034972
9.716628,0.613759,0.752543,-9.522238,0.037874,-0.098502,-0.038485
9.724982,0.558724,0.748953,-9.495916,0.036805,-0.098044,-0.035277
9.733457,0.583849,0.740579,-9.576076,0.034514,-0.095295,-0.033139
9.742188,0.583849,0.740579,-9.576076,0.034208,-0.092546,-0.033750
9.750601,0.586242,0.738186,-9.542577,0.034208,-0.092546,-0.033750
9.758864,0.614955,0.728614,-9.546166,0.033139,-0.091630,-0.030696
9.767297,0.620937,0.751346,-9.535398,0.033750,-0.090866,-0.031154
9.775597,0.613759,0.752543,-9.531809,0.033903,-0.093768,-0.032834
9.784001,0.599402,0.752543,-9.533005,0.034361,-0.096364,-0.034667
9.792452,0.599402,0.752543,-9.533005,0.035125,-0.096975,-0.034667
9.800731,0.575474,0.757328,-9.553344,0.035125,-0.096975,-0.036957
9.809069,0.577867,0.782453,-9.561719,0.040012,-0.102473,-0.036957
9.817315,0.575474,0.772882,-9.522238,0.032834,-0.091630,-0.035125
9.825666,0.594616,0.775275,-9.535398,0.033445,-0.088117,-0.035277
9.833926,0.588634,0.756132,-9.543773,0.037415,-0.092393,-0.037110
9.842641,0.588634,0.756132,-9.537791,0.036652,-0.090561,-0.036957
9.851036,0.601795,0.780060,-9.537791,0.036652,-0.088575,-0.034667
9.859227,0.582652,0.745364,-9.501899,0.034361,-0.088575,-0.034667
9.867687,0.563510,0.772882,-9.537791,0.037110,-0.094073,-0.034667
9.875892,0.592224,0.762114,-9.530612,0.036499,-0.097433,-0.030849
9.884151,0.595813,0.748953,-9.534202,0.036499,-0.096822,-0.029627
9.893130,0.611366,0.741775,-9.571290,0.036041,-0.098349,-0.030238
9.901376,0.611366,0.741775,-9.571290,0.036041,-0.096517,-0.034514
9.910085,0.581456,0.739382,-9.541380,0.036041,-0.096517,-0.034514
9.918365,0.593420,0.753739,-9.504291,0.038485,-0.099418,-0.039554
9.925949,0.579063,0.757328,-9.471988,0.038332,-0.095600,-0.043677
9.933545,0.592224,0.748953,-9.547362,0.031765,-0.082925,-0.041233
9.941232,0.592224,0.748953,-9.547362,0.031765,-0.082925,-0.039095
9.948941,0.562313,0.757328,-9.528220,0.031154,-0.082925,-0.039095
9.956454,0.576670,0.745364,-9.530612,0.031154,-0.085521,-0.036652
9.963920,0.575474,0.750150,-9.511470,0.035736,-0.096059,-0.035125
9.971553,0.575474,0.750150,-9.511470,0.034667,-0.097128,-0.031765
9.979020,0.568295,0.759721,-9.585647,0.034667,-0.097128,-0.031765
9.986632,0.589831,0.774078,-9.540184,0.034208,-0.093615,-0.031307
9.994390,0.571885,0.777667,-9.536594,0.037721,-0.099113,-0.037263
10.009744,0.586242,0.805185,-9.519845,0.037263,-0.094379,-0.038637
10.022180,0.568295,0.783649,-9.519845,0.034056,-0.086285,-0.040164
10.033282,0.568295,0.762114,-9.538987,0.038637,-0.094226,-0.042608
10.043885,0.586242,0.769292,-9.553344,0.041844,-0.101098,-0.040470
10.052653,0.586242,0.742971,-9.549755,0.038790,-0.098349,-0.032987
10.061795,0.583849,0.742971,-9.549755,0.036194,-0.098349,-0.031154
12.072665,0.591027,0.770489,-9.533005,0.035125,-0.088575,-0.038790
12.077293,0.591027,0.770489,-9.533005,0.035125,-0.088575,-0.038790
12.082095,0.583849,0.772882,-9.553344,0.034514,-0.090561,-0.040470
12.086889,0.583849,0.772882,-9.553344,0.034514,-0.090561,-0.040470
12.091375,0.586242,0.762114,-9.533005,0.036805,-0.090408,-0.041081
12.095873,0.586242,0.762114,-9.533005,0.036805,-0.090408,-0.041081
12.100395,0.602991,0.763310,-9.504291,0.031001,-0.082925,-0.036805
12.105323,0.602991,0.763310,-9.504291,0.031001,-0.082925,-0.036805
12.109909,0.599402,0.759721,-9.533005,0.034208,-0.088270,-0.036805
12.114389,0.599402,0.759721,-9.533005,0.034208,-0.088270,-0.036805
12.118861,0.599402,0.759721,-9.533005,0.034514,-0.091783,-0.035430
12.123608,0.611366,0.747757,-9.540184,0.034514,-0.091783,-0.035430
12.128292,0.611366,0.747757,-9.540184,0.034514,-0.091783,-0.035430
12.132804,0.604188,0.744168,-9.515059,0.035888,-0.091630,-0.036805
12.137271,0.604188,0.744168,-9.515059,0.035888,-0.091630,-0.036805
12.141737,0.600598,0.762114,-9.513863,0.036499,-0.091019,-0.035888
12.146542,0.600598,0.762114,-9.513863,0.036499,-0.091019,-0.035888
12.151056,0.595813,0.756132,-9.480363,0.037874,-0.094531,-0.038179
12.155881,0.595813,0.756132,-9.480363,0.037874,-0.094531,-0.038179
12.160427,0.604188,0.739382,-9.541380,0.031460,-0.087506,-0.034514
12.165133,0.604188,0.739382,-9.541380,0.031460,-0.087506,-0.034514
12.169826,0.594616,0.744168,-9.500702,0.030238,-0.086743,-0.033903
12.174554,0.594616,0.744168,-9.500702,0.030238,-0.086743,-0.033903
12.179070,0.594616,0.744168,-9.500702,0.034819,-0.092241,-0.036499
12.183914,0.563510,0.736989,-9.531809,0.034819,-0.092241,-0.036499
12.188675,0.563510,0.736989,-9.531809,0.038179,-0.097738,-0.038026
12.193464,0.607777,0.764507,-9.527023,0.038179,-0.097738,-0.038026
12.198569,0.607777,0.764507,-9.527023,0.034056,-0.090866,-0.034514
12.203886,0.582652,0.760918,-9.518648,0.034056,-0.090866,-0.034514
12.211374,0.580259,0.764507,-9.549755,0.036041,-0.095295,-0.036499
12.217266,0.580259,0.764507,-9.549755,0.036041,-0.095295,-0.036499
12.222644,0.574277,0.762114,-9.566505,0.033903,-0.091630,-0.036194
12.227973,0.574277,0.762114,-9.566505,0.033903,-0.091630,-0.036194
12.233054,0.594616,0.782453,-9.515059,0.035888,-0.093615,-0.038943
12.238133,0.594616,0.782453,-9.515059,0.035888,-0.093615,-0.038943
12.243257,0.574277,0.775275,-9.516255,0.034819,-0.087812,-0.037110
12.248425,0.574277,0.775275,-9.516255,0.034819,-0.094226,-0.039401
12.253585,0.624527,0.752543,-9.524630,0.037721,-0.094226,-0.039401
12.258272,0.624527,0.752543,-9.524630,0.037721,-0.094226,-0.038485
12.263098,0.562313,0.758525,-9.506684,0.037110,-0.091783,-0.038485
12.267882,0.562313,0.758525,-9.506684,0.037110,-0.091783,-0.038485
12.272385,0.589831,0.753739,-9.549755,0.038485,-0.095753,-0.039554
12.276892,0.589831,0.753739,-9.549755,0.038485,-0.095753,-0.039554
12.281394,0.588634,0.753739,-9.577272,0.033750,-0.091630,-0.031307
12.286034,0.588634,0.753739,-9.577272,0.033750,-0.091630,-0.031307
12.290602,0.594616,0.742971,-9.543773,0.036499,-0.096822,-0.033598
12.295133,0.594616,0.742971,-9.543773,0.036499,-0.096822,-0.033598
12.299647,0.583849,0.758525,-9.494720,0.037110,-0.095906,-0.032223
12.304590,0.583849,0.758525,-9.494720,0.037110,-0.095906,-0.032223
12.309306,0.583849,0.756132,-9.555737,0.033903,-0.094531,-0.032681
12.314072,0.581456,0.756132,-9.555737,0.033903,-0.094531,-0.032681
12.318825,0.581456,0.756132,-9.555737,0.036041,-0.096364,-0.037568
12.323583,0.598206,0.747757,-9.564112,0.036041,-0.096364,-0.037568
12.328189,0.598206,0.747757,-9.564112,0.036041,-0.096364,-0.035277
12.332917,0.579063,0.734597,-9.562916,0.032529,-0.087812,-0.035277
12.337676,0.579063,0.734597,-9.562916,0.032529,-0.087812,-0.035277
12.342506,0.607777,0.733400,-9.543773,0.032376,-0.086590,-0.034819
12.347183,0.607777,0.733400,-9.543773,0.032376,-0.086590,-0.034819
12.351708,0.576670,0.751346,-9.510273,0.035583,-0.093004,-0.036499
12.356221,0.576670,0.751346,-9.510273,0.035583,-0.093004,-0.036499
12.361168,0.581456,0.735793,-9.519845,0.036499,-0.093615,-0.038943
12.365963,0.581456,0.735793,-9.519845,0.036499,-0.093615,-0.038943
12.370727,0.593420,0.752543,-9.529416,0.034667,-0.093310,-0.037110
12.375262,0.593420,0.752543,-9.529416,0.034667,-0.093310,-0.037110
12.379809,0.574277,0.759721,-9.543773,0.034361,-0.091935,-0.033903
12.384526,0.574277,0.759721,-9.543773,0.034361,-0.091935,-0.033903
12.389323,0.597009,0.760918,-9.530612,0.034361,-0.093157,-0.033139
12.394033,0.597009,0.760918,-9.530612,0.034361,-0.093157,-0.033139
12.398777,0.597009,0.760918,-9.530612,0.033292,-0.091019,-0.034361
12.403527,0.568295,0.748953,-9.527023,0.033292,-0.091019,-0.034361
12.408168,0.568295,0.748953,-9.527023,0.037874,-0.096669,-0.037415
12.412886,0.606581,0.769292,-9.554541,0.037874,-0.096669,-0.037415
12.417628,0.606581,0.769292,-9.554541,0.037874,-0.096669,-0.037415
12.422318,0.592224,0.762114,-9.558130,0.032834,-0.087201,-0.034972
12.426858,0.592224,0.762114,-9.558130,0.032834,-0.087201,-0.034972
12.431424,0.611366,0.766900,-9.530612,0.030849,-0.084299,-0.034667
12.435943,0.611366,0.766900,-9.530612,0.030849,-0.084299,-0.034667
12.440701,0.587438,0.751346,-9.519845,0.035277,-0.091324,-0.038332
12.445239,0.587438,0.751346,-9.519845,0.035277,-0.091324,-0.038332
12.450081,0.601795,0.756132,-9.523434,0.033750,-0.089644,-0.037110
12.454690,0.601795,0.756132,-9.523434,0.033750,-0.089644,-0.037110
12.459826,0.552742,0.750150,-9.525827,0.034056,-0.090713,-0.035888
14.466077,0.592224,0.729811,-9.527023,0.034819,-0.090408,-0.035277
14.470935,0.592224,0.729811,-9.527023,0.034819,-0.090408,-0.035277
14.475860,0.581456,0.720240,-9.559326,0.036194,-0.094073,-0.036957
14.480750,0.581456,0.720240,-9.559326,0.036194,-0.094073,-0.036957
14.485255,0.581456,0.720240,-9.559326,0.038026,-0.094837,-0.038637
14.489740,0.564706,0.699901,-9.548559,0.038026,-0.094837,-0.038637
14.494271,0.564706,0.699901,-9.548559,0.038026,-0.094837,-0.038637
14.499058,0.605384,0.723829,-9.509077,0.032376,-0.086743,-0.033598
14.503830,0.605384,0.723829,-9.509077,0.032376,-0.086743,-0.033598
14.508362,0.599402,0.728614,-9.525827,0.031918,-0.087506,-0.032834
14.513067,0.599402,0.728614,-9.525827,0.031918,-0.087506,-0.032834
14.517800,0.595813,0.738186,-9.577272,0.036194,-0.095753,-0.037415
14.522595,0.595813,0.738186,-9.577272,0.036194,-0.095753,-0.037415
14.527458,0.591027,0.723829,-9.564112,0.032834,-0.089339,-0.035583
14.532516,0.591027,0.723829,-9.564112,0.032834,-0.089339,-0.035583
14.537337,0.577867,0.735793,-9.530612,0.034514,-0.091172,-0.038332
14.542045,0.577867,0.735793,-9.530612,0.034514,-0.091172,-0.038332
14.546796,0.604188,0.727418,-9.505488,0.036041,-0.089492,-0.037874
14.551506,0.604188,0.727418,-9.505488,0.036041,-0.089492,-0.037874
14.556285,0.598206,0.726222,-9.549755,0.033445,-0.086590,-0.035125
14.560936,0.598206,0.726222,-9.549755,0.033445,-0.086590,-0.035125
14.565680,0.586242,0.717847,-9.538987,0.032987,-0.085521,-0.035277
14.570389,0.586242,0.717847,-9.538987,0.032987,-0.085521,-0.035277
14.575099,0.586242,0.717847,-9.538987,0.035736,-0.089339,-0.036652
14.579955,0.557528,0.701097,-9.541380,0.035736,-0.089339,-0.036652
14.584707,0.557528,0.701097,-9.541380,0.033292,-0.089797,-0.036041
14.589371,0.576670,0.691526,-9.580862,0.033292,-0.089797,-0.036041
14.594096,0.576670,0.691526,-9.580862,0.033292,-0.089797,-0.036041
14.598580,0.599402,0.738186,-9.546166,0.036194,-0.096975,-0.036499
14.603390,0.599402,0.738186,-9.546166,0.036194,-0.096975,-0.036499
14.608172,0.586242,0.745364,-9.534202,0.031460,-0.088117,-0.033139
14.612891,0.586242,0.745364,-9.534202,0.031460,-0.088117,-0.033139
14.617621,0.576670,0.722632,-9.530612,0.032376,-0.090713,-0.033445
14.622375,0.576670,0.722632,-9.530612,0.032376,-0.090713,-0.033445
14.627106,0.549153,0.716650,-9.513863,0.033292,-0.089797,-0.032681
14.632174,0.549153,0.716650,-9.513863,0.033292,-0.089797,-0.032681
14.636828,0.598206,0.707079,-9.533005,0.033750,-0.091477,-0.035277
14.641876,0.598206,0.707079,-9.533005,0.033750,-0.091477,-0.035277
14.646512,0.614955,0.715454,-9.531809,0.032834,-0.089644,-0.033445
14.651059,0.614955,0.715454,-9.531809,0.032834,-0.089644,-0.033445
14.655642,0.580259,0.726222,-9.531809,0.033445,-0.090255,-0.031307
14.660197,0.580259,0.726222,-9.531809,0.033445,-0.090255,-0.031307
14.664901,0.580259,0.726222,-9.531809,0.033750,-0.094073,-0.033445
14.669453,0.611366,0.710668,-9.546166,0.033750,-0.094073,-0.033445
14.673855,0.611366,0.710668,-9.546166,0.033750,-0.094073,-0.033445
14.678305,0.605384,0.735793,-9.541380,0.036805,-0.097586,-0.034208
14.682917,0.605384,0.735793,-9.541380,0.036805,-0.097586,-0.034208
14.687339,0.561117,0.709472,-9.540184,0.037110,-0.097738,-0.035583
14.691690,0.561117,0.709472,-9.540184,0.037110,-0.097738,-0.035583
14.696058,0.624527,0.742971,-9.530612,0.036194,-0.095600,-0.037415
14.700408,0.624527,0.742971,-9.530612,0.036194,-0.095600,-0.037415
14.704904,0.624527,0.742971,-9.530612,0.032376,-0.085827,-0.033903
14.709632,0.602991,0.727418,-9.549755,0.032376,-0.085827,-0.033903
16.716441,0.656830,0.741775,-9.509077,0.034056,-0.093615,-0.032070
16.721297,0.656830,0.741775,-9.509077,0.037415,-0.100640,-0.034819
16.726070,0.589831,0.673580,-9.574880,0.037415,-0.100640,-0.034819
16.730747,0.589831,0.673580,-9.574880,0.037415,-0.100640,-0.035736
16.735643,0.544367,0.715454,-9.600004,0.036652,-0.097280,-0.035736
16.740501,0.544367,0.715454,-9.600004,0.036652,-0.097280,-0.035736
16.745446,0.643669,0.727418,-9.522238,0.031612,-0.088270,-0.036346
16.750254,0.643669,0.727418,-9.522238,0.031612,-0.088270,-0.036346
16.754821,0.661615,0.745364,-9.555737,0.032987,-0.081856,-0.041692
16.759799,0.661615,0.745364,-9.555737,0.032987,-0.081856,-0.041692
16.764394,0.592224,0.795614,-9.543773,0.027642,-0.072998,-0.045357
16.768930,0.592224,0.795614,-9.543773,0.027642,-0.072998,-0.045357
16.773694,0.630509,0.780060,-9.476774,0.029169,-0.076511,-0.045662
18.780484,0.630509,0.646062,-9.538987,0.033903,-0.091630,-0.034208
18.785257,0.630509,0.646062,-9.538987,0.033903,-0.091630,-0.034208
18.790128,0.619741,0.623330,-9.572487,0.034667,-0.091935,-0.036499
18.794681,0.619741,0.623330,-9.572487,0.034667,-0.091935,-0.036499
18.799403,0.619741,0.658026,-9.529416,0.034514,-0.092088,-0.036499
18.804041,0.619741,0.658026,-9.529416,0.034514,-0.092088,-0.036499
18.809416,0.624527,0.673580,-9.562916,0.036194,-0.094226,-0.036805
18.813969,0.624527,0.673580,-9.562916,0.036194,-0.094226,-0.036805
18.818655,0.643669,0.653241,-9.554541,0.036652,-0.096059,-0.036805
18.823284,0.643669,0.653241,-9.554541,0.036652,-0.096059,-0.036805
18.828032,0.643669,0.653241,-9.554541,0.034208,-0.090255,-0.035277
18.832714,0.654437,0.672383,-9.524630,0.034208,-0.090255,-0.035277
18.837384,0.654437,0.672383,-9.524630,0.034208,-0.083536,-0.032834
18.842564,0.625723,0.642473,-9.541380,0.031612,-0.083536,-0.032834
18.847312,0.625723,0.642473,-9.541380,0.031612,-0.088270,-0.034514
18.851837,0.656830,0.654437,-9.527023,0.033139,-0.088270,-0.034514
18.856973,0.656830,0.654437,-9.527023,0.033139,-0.088270,-0.034514
18.861529,0.643669,0.655633,-9.574880,0.036957,-0.094531,-0.038179
18.866012,0.643669,0.655633,-9.574880,0.036957,-0.094531,-0.038179
18.870488,0.630509,0.654437,-9.578469,0.038332,-0.096669,-0.036805
18.874924,0.630509,0.654437,-9.578469,0.038332,-0.096669,-0.036805
18.879360,0.624527,0.666401,-9.505488,0.037874,-0.097738,-0.038790
18.883789,0.624527,0.666401,-9.505488,0.037874,-0.097738,-0.038790
18.888320,0.624527,0.654437,-9.543773,0.030085,-0.084299,-0.033903
18.892707,0.634098,0.654437,-9.543773,0.030085,-0.084299,-0.033903
18.897153,0.634098,0.654437,-9.543773,0.030085,-0.084299,-0.035277
18.901770,0.635294,0.653241,-9.541380,0.032376,-0.086896,-0.035277
18.906193,0.635294,0.653241,-9.541380,0.032376,-0.086896,-0.035277
18.910768,0.616152,0.653241,-9.515059,0.036499,-0.094073,-0.036652
18.915214,0.616152,0.653241,-9.515059,0.036499,-0.094073,-0.036652
18.919649,0.628116,0.658026,-9.554541,0.036346,-0.097128,-0.037110
18.924076,0.628116,0.658026,-9.554541,0.036346,-0.097128,-0.037110
18.928584,0.646062,0.655633,-9.548559,0.036194,-0.096822,-0.036194
18.933041,0.646062,0.655633,-9.548559,0.036194,-0.096822,-0.036194
18.937441,0.646062,0.655633,-9.548559,0.033903,-0.093615,-0.034514
18.941789,0.644866,0.660419,-9.531809,0.033903,-0.093615,-0.034514
18.946194,0.644866,0.660419,-9.531809,0.033903,-0.093615,-0.034514
18.950730,0.634098,0.641276,-9.528220,0.031154,-0.087354,-0.033445
18.955156,0.634098,0.641276,-9.528220,0.031154,-0.087354,-0.033445
18.959797,0.640080,0.701097,-9.512666,0.032834,-0.089797,-0.033750
18.964236,0.640080,0.701097,-9.512666,0.032834,-0.089797,-0.033750
18.968693,0.625723,0.684347,-9.568898,0.036041,-0.094837,-0.036499
18.973140,0.625723,0.684347,-9.568898,0.036041,-0.094837,-0.036499
18.977623,0.625723,0.684347,-9.568898,0.032987,-0.091172,-0.034667
18.982368,0.624527,0.661615,-9.566505,0.032987,-0.091172,-0.034667
18.986796,0.624527,0.661615,-9.566505,0.032987,-0.091172,-0.034667
18.991308,0.632902,0.638884,-9.529416,0.032223,-0.088270,-0.034819
18.995763,0.632902,0.638884,-9.529416,0.032223,-0.088270,-0.034819
19.000159,0.646062,0.660419,-9.560523,0.032070,-0.088881,-0.033598
19.004774,0.646062,0.660419,-9.560523,0.032070,-0.088881,-0.033598
19.009350,0.632902,0.653241,-9.505488,0.037874,-0.096517,-0.038179
19.013847,0.632902,0.653241,-9.505488,0.037874,-0.096517,-0.038179
19.018276,0.625723,0.660419,-9.518648,0.036652,-0.092546,-0.037110
19.022675,0.625723,0.660419,-9.518648,0.036652,-0.092546,-0.037110
19.027078,0.625723,0.660419,-9.518648,0.036652,-0.093157,-0.036346
19.031579,0.643669,0.652044,-9.546166,0.036194,-0.093157,-0.036346
19.036369,0.643669,0.652044,-9.546166,0.036194,-0.093157,-0.036346
21.043365,0.640080,0.642473,-9.531809,0.034819,-0.090408,-0.036957
21.048202,0.628116,0.652044,-9.525827,0.034667,-0.089339,-0.036957
21.053074,0.628116,0.652044,-9.525827,0.034667,-0.089339,-0.036957
21.057848,0.636491,0.650848,-9.541380,0.033903,-0.089492,-0.036346
21.062775,0.636491,0.650848,-9.541380,0.033903,-0.089492,-0.036346
21.067595,0.658026,0.672383,-9.562916,0.032376,-0.087659,-0.033903
21.072555,0.658026,0.672383,-9.562916,0.032376,-0.087659,-0.033903
21.077435,0.646062,0.660419,-9.578469,0.033139,-0.089950,-0.035583
21.082331,0.646062,0.660419,-9.578469,0.033139,-0.089950,-0.035583
21.087522,0.605384,0.668794,-9.507881,0.032223,-0.087659,-0.032834
23.094529,0.540778,0.622134,-9.538987,0.033292,-0.089339,-0.037415
23.099200,0.540778,0.622134,-9.538987,0.033292,-0.089339,-0.037415
23.103882,0.532403,0.624527,-9.573683,0.034819,-0.090561,-0.036805
23.108808,0.532403,0.624527,-9.573683,0.034819,-0.090561,-0.036805
23.113408,0.552742,0.632902,-9.494720,0.034819,-0.090561,-0.033903
23.117983,0.552742,0.632902,-9.494720,0.034819,-0.090561,-0.033903
23.122516,0.568295,0.616152,-9.531809,0.031460,-0.087659,-0.031154
23.127216,0.568295,0.616152,-9.531809,0.031460,-0.087659,-0.031154
23.131916,0.558724,0.623330,-9.572487,0.033903,-0.089797,-0.034972
23.136981,0.558724,0.623330,-9.572487,0.033903,-0.089797,-0.034972
23.141865,0.533599,0.610170,-9.533005,0.036346,-0.092546,-0.037263
23.147145,0.533599,0.610170,-9.533005,0.036346,-0.092546,-0.037263
23.152536,0.513260,0.620937,-9.529416,0.035277,-0.092546,-0.036346
23.157784,0.513260,0.620937,-9.529416,0.035277,-0.092546,-0.036346
23.162888,0.544367,0.618545,-9.547362,0.033598,-0.089339,-0.035125
23.168117,0.544367,0.618545,-9.547362,0.033598,-0.089339,-0.035125
23.173846,0.541974,0.602991,-9.571290,0.034972,-0.091630,-0.036041
23.179055,0.541974,0.602991,-9.571290,0.034972,-0.091630,-0.036041
23.184319,0.569492,0.619741,-9.603594,0.034361,-0.090561,-0.036041
23.189420,0.569492,0.619741,-9.603594,0.034361,-0.090561,-0.036041
23.194661,0.561117,0.632902,-9.535398,0.036194,-0.092393,-0.037110
23.199469,0.561117,0.632902,-9.535398,0.036194,-0.092393,-0.037110
23.204073,0.531207,0.618545,-9.505488,0.033445,-0.090713,-0.034361
23.209775,0.531207,0.618545,-9.505488,0.033445,-0.090713,-0.034667
23.214664,0.537189,0.624527,-9.556933,0.033750,-0.090103,-0.034667
23.219499,0.537189,0.624527,-9.556933,0.033750,-0.090103,-0.034667
23.223999,0.532403,0.618545,-9.546166,0.034208,-0.089034,-0.036957
23.228527,0.532403,0.618545,-9.546166,0.034208,-0.089034,-0.036957
23.233006,0.512064,0.632902,-9.552148,0.031307,-0.085063,-0.035277
23.237590,0.512064,0.632902,-9.552148,0.031307,-0.085063,-0.035277
23.242002,0.547956,0.608973,-9.530612,0.035583,-0.093768,-0.035888
23.246413,0.547956,0.608973,-9.530612,0.035583,-0.093768,-0.035888
23.250807,0.547956,0.608973,-9.552148,0.034208,-0.091324,-0.036194
23.255284,0.558724,0.629312,-9.552148,0.034208,-0.091324,-0.036194
23.259683,0.558724,0.629312,-9.552148,0.034208,-0.091324,-0.036194
23.264123,0.564706,0.606581,-9.561719,0.035736,-0.091477,-0.037263
23.268516,0.564706,0.606581,-9.561719,0.035736,-0.091477,-0.037263
23.272900,0.551546,0.612563,-9.507881,0.036346,-0.091630,-0.036499
23.277304,0.551546,0.612563,-9.507881,0.036346,-0.091630,-0.036499
23.281629,0.539581,0.606581,-9.541380,0.036805,-0.095906,-0.036805
23.286129,0.539581,0.606581,-9.541380,0.036805,-0.095906,-0.036805
23.290634,0.539581,0.606581,-9.510273,0.039248,-0.099724,-0.037721
23.295169,0.534796,0.610170,-9.510273,0.039248,-0.099724,-0.037721
23.299602,0.534796,0.610170,-9.510273,0.039248,-0.099724,-0.037721
23.304021,0.528814,0.638884,-9.540184,0.038026,-0.097891,-0.036957
23.308423,0.528814,0.638884,-9.540184,0.038026,-0.097891,-0.036957
23.312890,0.545564,0.622134,-9.559326,0.031918,-0.088881,-0.033903
23.317419,0.545564,0.622134,-9.559326,0.031918,-0.088881,-0.033903
23.321980,0.544367,0.604188,-9.568898,0.035888,-0.093615,-0.036957
23.326433,0.544367,0.604188,-9.568898,0.035888,-0.093615,-0.036957
23.330863,0.537189,0.624527,-9.543773,0.035888,-0.093310,-0.036652
23.335819,0.537189,0.624527,-9.543773,0.035888,-0.093310,-0.036652
23.340750,0.543171,0.614955,-9.561719,0.032529,-0.087965,-0.034514
23.345936,0.543171,0.614955,-9.561719,0.032529,-0.087965,-0.034514
23.350372,0.543171,0.614955,-9.561719,0.033292,-0.088270,-0.034208
23.355232,0.543171,0.629312,-9.538987,0.033292,-0.088270,-0.034208
23.359729,0.543171,0.629312,-9.538987,0.033292,-0.087812,-0.034208
23.364149,0.561117,0.614955,-9.560523,0.032987,-0.087812,-0.034208
23.368585,0.561117,0.614955,-9.560523,0.032987,-0.087812,-0.034208
23.373143,0.552742,0.616152,-9.588040,0.036805,-0.096975,-0.037568
23.377811,0.552742,0.616152,-9.588040,0.036805,-0.096975,-0.037568
23.382225,0.549153,0.616152,-9.542577,0.034819,-0.090408,-0.035888
23.387050,0.549153,0.616152,-9.542577,0.034819,-0.090408,-0.035888
23.391643,0.549153,0.623330,-9.555737,0.032987,-0.087506,-0.033445
23.396467,0.549153,0.623330,-9.555737,0.032987,-0.087506,-0.033445
25.403306,0.571885,0.587438,-9.541380,0.035583,-0.091783,-0.034819
25.407969,0.567099,0.588634,-9.579665,0.035736,-0.092088,-0.034667
25.412688,0.567099,0.588634,-9.579665,0.035736,-0.092088,-0.034667
25.417413,0.562313,0.587438,-9.571290,0.038790,-0.097586,-0.038179
25.422040,0.562313,0.587438,-9.571290,0.038790,-0.097586,-0.038179
25.426759,0.562313,0.587438,-9.571290,0.035583,-0.095448,-0.037568
25.431400,0.570688,0.587438,-9.540184,0.035583,-0.095448,-0.037568
25.436047,0.570688,0.587438,-9.540184,0.035583,-0.095448,-0.037568
25.441013,0.593420,0.606581,-9.535398,0.035583,-0.091935,-0.037874
25.446252,0.593420,0.606581,-9.535398,0.035583,-0.081398,-0.033139
25.451066,0.568295,0.625723,-9.591629,0.028863,-0.081398,-0.033139
25.455723,0.568295,0.625723,-9.591629,0.028863,-0.081398,-0.033139
25.460241,0.546760,0.586242,-9.527023,0.033903,-0.090103,-0.033903
25.464871,0.546760,0.586242,-9.527023,0.033903,-0.090103,-0.033903
25.469449,0.601795,0.618545,-9.525827,0.035736,-0.093462,-0.034208
25.474492,0.601795,0.618545,-9.525827,0.035736,-0.093462,-0.034208
25.479665,0.575474,0.602991,-9.499506,0.034667,-0.091477,-0.034514
25.484826,0.575474,0.602991,-9.499506,0.034667,-0.091477,-0.034514
25.490088,0.547956,0.599402,-9.533005,0.035125,-0.091324,-0.036194
25.494807,0.547956,0.599402,-9.533005,0.035125,-0.091324,-0.036194
25.499474,0.577867,0.597009,-9.550951,0.034514,-0.091172,-0.033903
25.504027,0.577867,0.597009,-9.550951,0.034514,-0.091172,-0.033903
25.508893,0.547956,0.602991,-9.559326,0.033445,-0.090255,-0.035125
25.513887,0.547956,0.602991,-9.559326,0.033445,-0.090255,-0.035125
25.518584,0.563510,0.599402,-9.517452,0.035583,-0.094379,-0.036652
25.523049,0.563510,0.599402,-9.517452,0.035583,-0.094379,-0.036652
25.527607,0.547956,0.607777,-9.576076,0.034972,-0.093768,-0.036194
25.532128,0.547956,0.607777,-9.576076,0.034972,-0.093768,-0.036194
25.536645,0.547956,0.607777,-9.576076,0.033445,-0.088881,-0.035277
25.541067,0.553938,0.617348,-9.571290,0.033445,-0.088881,-0.035277
25.545734,0.553938,0.617348,-9.571290,0.033445,-0.088881,-0.035277
25.550326,0.594616,0.612563,-9.556933,0.030391,-0.085216,-0.032987
25.554801,0.594616,0.612563,-9.556933,0.030391,-0.085216,-0.032987
25.559241,0.611366,0.605384,-9.540184,0.031918,-0.088117,-0.033139
25.563725,0.611366,0.605384,-9.540184,0.031918,-0.088117,-0.033139
25.568207,0.576670,0.577867,-9.547362,0.035888,-0.091783,-0.035888
25.572682,0.576670,0.577867,-9.547362,0.035888,-0.091783,-0.035888
25.577224,0.573081,0.610170,-9.552148,0.036957,-0.093615,-0.036499
25.581584,0.573081,0.610170,-9.552148,0.036957,-0.093615,-0.036499
25.586162,0.573081,0.610170,-9.552148,0.032223,-0.087812,-0.036041
25.590895,0.556331,0.630509,-9.547362,0.032223,-0.087812,-0.036041
27.597946,0.539581,0.811167,-9.524630,0.035430,-0.091935,-0.035736
27.603249,0.539581,0.811167,-9.524630,0.033292,-0.089950,-0.034667
27.608468,0.520439,0.833899,-9.546166,0.033292,-0.089950,-0.034667
27.613617,0.516850,0.841077,-9.524630,0.033750,-0.090866,-0.035888
27.619085,0.516850,0.841077,-9.524630,0.033750,-0.090866,-0.035888
27.624447,0.564706,0.853041,-9.493524,0.034972,-0.091630,-0.036194
27.629843,0.564706,0.853041,-9.493524,0.034972,-0.091630,-0.036194
27.634833,0.581456,0.823131,-9.527023,0.034514,-0.091477,-0.037263
27.639657,0.581456,0.823131,-9.527023,0.034514,-0.091477,-0.037263
27.644754,0.539581,0.832702,-9.506684,0.032987,-0.089339,-0.034361
27.649566,0.539581,0.832702,-9.506684,0.032987,-0.089339,-0.034361
27.654469,0.562313,0.847059,-9.512666,0.031612,-0.085521,-0.031460
27.659137,0.562313,0.847059,-9.512666,0.031612,-0.085521,-0.031460
27.663797,0.552742,0.815953,-9.541380,0.033903,-0.091783,-0.033139
27.668480,0.552742,0.815953,-9.541380,0.033903,-0.091783,-0.033139
27.673721,0.538385,0.818345,-9.537791,0.032376,-0.086896,-0.032681
27.678340,0.538385,0.818345,-9.537791,0.032376,-0.086896,-0.032681
27.683003,0.538385,0.818345,-9.537791,0.035583,-0.094684,-0.035277
27.687650,0.551546,0.835095,-9.498309,0.035583,-0.094684,-0.035277
27.692094,0.551546,0.835095,-9.498309,0.035583,-0.094684,-0.035277
27.696622,0.525225,0.826720,-9.543773,0.029932,-0.085216,-0.031460
27.701061,0.525225,0.826720,-9.543773,0.029932,-0.085216,-0.031460
27.705490,0.539581,0.825524,-9.573683,0.035277,-0.094990,-0.036957
27.709948,0.539581,0.825524,-9.573683,0.035277,-0.094990,-0.036957
27.714408,0.516850,0.837488,-9.559326,0.035125,-0.093310,-0.037110
27.718867,0.516850,0.837488,-9.559326,0.035125,-0.093310,-0.037110
27.724242,0.533599,0.841077,-9.541380,0.035277,-0.091172,-0.037263
27.728787,0.533599,0.841077,-9.541380,0.035277,-0.091172,-0.037263
27.733229,0.533599,0.841077,-9.542577,0.034972,-0.093157,-0.036652
27.737822,0.519243,0.829113,-9.542577,0.034972,-0.093157,-0.036652
27.742227,0.519243,0.829113,-9.542577,0.034972,-0.093157,-0.031460
27.746630,0.545564,0.827917,-9.586844,0.030543,-0.085979,-0.031460
27.751024,0.545564,0.827917,-9.586844,0.030543,-0.085979,-0.031460
27.755891,0.518046,0.825524,-9.534202,0.032681,-0.089186,-0.034056
27.760362,0.518046,0.825524,-9.534202,0.032681,-0.089186,-0.034056
27.764826,0.543171,0.851845,-9.510273,0.035277,-0.091477,-0.035736
27.769248,0.543171,0.851845,-9.510273,0.035277,-0.091477,-0.035736
27.775234,0.527617,0.809970,-9.529416,0.032070,-0.086285,-0.030696
27.779727,0.527617,0.809970,-9.529416,0.032070,-0.086285,-0.030696
27.784155,0.530010,0.833899,-9.531809,0.032070,-0.086743,-0.033750
27.788571,0.530010,0.833899,-9.531809,0.032070,-0.086743,-0.033750
27.793027,0.530010,0.833899,-9.537791,0.028100,-0.081703,-0.030849
27.797788,0.561117,0.837488,-9.537791,0.028100,-0.081703,-0.030849
27.802281,0.561117,0.837488,-9.537791,0.028100,-0.087659,-0.033903
27.806732,0.545564,0.856630,-9.528220,0.032376,-0.087659,-0.033903
27.811163,0.545564,0.856630,-9.528220,0.032376,-0.087659,-0.033903
27.815886,0.546760,0.844666,-9.523434,0.034361,-0.092546,-0.036499
27.820370,0.546760,0.844666,-9.523434,0.034361,-0.092546,-0.036499
27.826505,0.574277,0.844666,-9.535398,0.034056,-0.089186,-0.034056
27.831424,0.574277,0.844666,-9.535398,0.034056,-0.089186,-0.034056
27.837091,0.528814,0.839881,-9.534202,0.035125,-0.093157,-0.036194
29.846088,0.546760,0.805185,-9.538987,0.034667,-0.091935,-0.035736
29.852097,0.531207,0.815953,-9.555737,0.034056,-0.089492,-0.035125
29.857911,0.531207,0.815953,-9.555737,0.034056,-0.089492,-0.035125
29.863760,0.527617,0.806381,-9.504291,0.032376,-0.087201,-0.034819
29.869587,0.527617,0.806381,-9.481560,0.036957,-0.094379,-0.037415
29.875628,0.539581,0.820738,-9.481560,0.036957,-0.094379,-0.037415
29.881478,0.545564,0.835095,-9.529416,0.036346,-0.096211,-0.036805
29.887350,0.545564,0.835095,-9.529416,0.036346,-0.096211,-0.036805
29.893376,0.556331,0.826720,-9.529416,0.033903,-0.092699,-0.036805
29.899243,0.556331,0.826720,-9.529416,0.031918,-0.088728,-0.034514
29.905032,0.547956,0.826720,-9.561719,0.031918,-0.088728,-0.034514
29.910746,0.559920,0.826720,-9.499506,0.034819,-0.092393,-0.035888
29.916753,0.559920,0.826720,-9.499506,0.034819,-0.092393,-0.035888
29.922451,0.551546,0.830309,-9.497113,0.037874,-0.096059,-0.036652
29.927671,0.551546,0.830309,-9.497113,0.037874,-0.096059,-0.036652
29.933195,0.551546,0.811167,-9.537791,0.034972,-0.094073,-0.034972
29.938541,0.551546,0.811167,-9.537791,0.034972,-0.094073,-0.034208
29.944349,0.534796,0.809970,-9.523434,0.034514,-0.091172,-0.034208
29.949966,0.583849,0.829113,-9.524630,0.031765,-0.085063,-0.032987
29.955147,0.583849,0.829113,-9.524630,0.031765,-0.085063,-0.032987
29.960252,0.551546,0.820738,-9.537791,0.032834,-0.087506,-0.033750
29.965343,0.551546,0.820738,-9.537791,0.032834,-0.087506,-0.033750
29.970417,0.562313,0.829113,-9.542577,0.033750,-0.088423,-0.033292
29.975502,0.562313,0.829113,-9.542577,0.033750,-0.088423,-0.033292
29.980362,0.561117,0.829113,-9.534202,0.032834,-0.090561,-0.033292
29.985496,0.561117,0.829113,-9.534202,0.032834,-0.090561,-0.033292
29.990484,0.550349,0.830309,-9.501899,0.032376,-0.088881,-0.033903
29.995615,0.550349,0.830309,-9.501899,0.032376,-0.088881,-0.033903
30.000551,0.544367,0.808774,-9.507881,0.033598,-0.087965,-0.034972
30.005419,0.544367,0.808774,-9.507881,0.033598,-0.087965,-0.034972
30.010418,0.598206,0.831506,-9.494720,0.034361,-0.090561,-0.036346
30.015367,0.598206,0.831506,-9.494720,0.034361,-0.090561,-0.036346
30.020235,0.557528,0.814756,-9.521041,0.034056,-0.090103,-0.034819
30.025354,0.557528,0.814756,-9.521041,0.034056,-0.090103,-0.034819
30.030477,0.551546,0.820738,-9.525827,0.031154,-0.087201,-0.035277
30.035820,0.551546,0.820738,-9.525827,0.031154,-0.087201,-0.035277
30.040919,0.540778,0.815953,-9.511470,0.037568,-0.096975,-0.037874
30.046213,0.540778,0.815953,-9.511470,0.037568,-0.096975,-0.037874
30.051278,0.552742,0.842274,-9.541380,0.036346,-0.095448,-0.038026
30.056545,0.552742,0.842274,-9.541380,0.036346,-0.095448,-0.038026
30.061682,0.545564,0.802792,-9.565308,0.032376,-0.089950,-0.035430
30.066770,0.545564,0.802792,-9.565308,0.032376,-0.089950,-0.035430
30.071929,0.520439,0.823131,-9.530612,0.032376,-0.087048,-0.033903
30.077064,0.520439,0.823131,-9.530612,0.032376,-0.087048,-0.033903
30.082150,0.551546,0.827917,-9.522238,0.035736,-0.092546,-0.036499
30.087240,0.551546,0.827917,-9.522238,0.035736,-0.092546,-0.036499
30.092179,0.549153,0.833899,-9.530612,0.035888,-0.093462,-0.036499
30.097824,0.549153,0.833899,-9.530612,0.035888,-0.093462,-0.036499
30.102872,0.528814,0.812363,-9.553344,0.036805,-0.091477,-0.038179
30.108030,0.528814,0.812363,-9.553344,0.036805,-0.091477,-0.038179
30.113214,0.534796,0.811167,-9.595219,0.035277,-0.090866,-0.036652
30.118406,0.534796,0.811167,-9.595219,0.035277,-0.089339,-0.034514
30.123574,0.527617,0.802792,-9.541380,0.033139,-0.089339,-0.034514
30.128704,0.527617,0.802792,-9.541380,0.034819,-0.092088,-0.036041
30.133964,0.562313,0.819542,-9.542577,0.034819,-0.092088,-0.036041
30.139073,0.562313,0.819542,-9.577272,0.033598,-0.088575,-0.035125
30.144330,0.524028,0.814756,-9.577272,0.033598,-0.088575,-0.035125
30.149532,0.568295,0.798006,-9.543773,0.033445,-0.091172,-0.034972
30.154740,0.568295,0.798006,-9.543773,0.033445,-0.091172,-0.034972
30.159848,0.543171,0.829113,-9.540184,0.035888,-0.096059,-0.035430
30.165137,0.543171,0.829113,-9.540184,0.035888,-0.096059,-0.035430
30.170081,0.546760,0.819542,-9.485149,0.032529,-0.088728,-0.033750
30.175351,0.546760,0.819542,-9.485149,0.032529,-0.088728,-0.033750
30.180486,0.562313,0.789631,-9.554541,0.037263,-0.094837,-0.037110
30.185581,0.562313,0.789631,-9.554541,0.037263,-0.094837,-0.037110
30.191033,0.540778,0.820738,-9.559326,0.039554,-0.097738,-0.037874
30.196831,0.540778,0.820738,-9.559326,0.039554,-0.097738,-0.037874
30.201945,0.538385,0.817149,-9.511470,0.036041,-0.094684,-0.035736
30.207749,0.538385,0.817149,-9.511470,0.036041,-0.094684,-0.035736
30.213326,0.541974,0.821935,-9.540184,0.034819,-0.090255,-0.036041
30.219079,0.541974,0.830309,-9.505488,0.033750,-0.089797,-0.034667
