timestamp,accX,accY,accZ,gyroX,gyroY,gyroZ
5.245208740234375e-06,-0.0011964112999999221,0.0,0.0071784678000028634,-0.00045814892864851076,-0.001985312024143565,-0.000610865238198012
0.008953571319580078,0.01674975820000013,-0.0035892338999999884,-0.0023928226000009545,0.0022907446432425538,-0.00473420559603463,-0.000610865238198012
0.01742243766784668,-0.011964112999999998,0.009571290400000043,-0.011964112999997667,-0.0035124751196385882,0.006719517620178167,0.0033597588100890835
0.026107311248779297,-0.011964112999999998,0.009571290400000043,-0.011964112999997667,-0.0033597588100890835,0.0039706240482871025,0.00259617726234157
0.03501605987548828,-0.020338992099999897,0.019142580799999975,-0.0059820564999988335,-0.0033597588100890835,0.0013744467859455323,0.0019853120241435512
0.043547868728637695,0.0035892338999999884,0.02153540339999993,0.014356935599998621,-0.0001527163095495082,0.0013744467859455323,0.0019853120241435512
0.052893638610839844,0.007178467799999977,0.009571290400000043,0.0,0.002443460952792062,-0.0022907446432425538,-0.0013744467859455323
0.06129097938537598,-0.03708875029999992,0.02153540339999993,-0.0059820564999988335,-0.000610865238198019,0.004276056667386105,-0.001221730476396024
0.06973028182983398,-0.005982056499999944,0.035892338999999995,0.005982056500002386,-0.0015271630954950405,0.0039706240482871025,0.0003054326190990095
0.07823824882507324,0.0,0.03708875029999992,-0.021535403400001485,0.0015271630954950335,0.004276056667386105,-0.001832595714594043
0.08670926094055176,0.022731814700000075,0.010767701699999965,0.009571290400000265,-0.0033597588100890835,0.006719517620178167,0.0
0.09587264060974121,0.022731814700000075,0.010767701699999965,0.009571290400000265,0.0010690141668465297,0.00030543261909900254,-0.0025961772623415633
0.10480952262878418,0.015553346900000098,0.011964112999999998,0.0023928226000009545,0.0010690141668465297,0.0117591558353118,0.004123340357836604
0.11348772048950195,0.011964112999999998,0.009571290400000043,0.0011964113000004772,-0.007483099167925691,0.0117591558353118,0.004123340357836604
0.12122321128845215,0.0,-0.014356935599999954,-0.021535403400001485,0.0015271630954950335,0.000610865238198019,0.0003054326190990095
0.1289079189300537,0.00837487910000001,-0.027517459899999985,-0.009571290400000265,-0.0021380283336930594,0.004886921905584124,0.0022907446432425607
0.1371164321899414,-0.010767701699999965,-0.02871387120000002,0.020338992100001008,-0.0009162978572970285,0.000610865238198019,0.0003054326190990095
0.14573359489440918,-0.010767701699999965,-0.02871387120000002,0.020338992100001008,-0.0009162978572970285,-0.001985312024143565,-0.0027488935718910645
0.15346097946166992,-0.017946169499999942,-0.04187439549999994,-0.014356935599998621,0.0013744467859455323,-0.001985312024143565,-0.0027488935718910645
0.16216611862182617,0.017946169500000053,-0.035892338999999995,-0.0011964113000004772,0.00015271630954950127,-0.0013744467859455461,-0.0019853120241435512
0.17047667503356934,0.01674975820000013,0.0023928225999999553,-0.035892339000000106,-0.000610865238198019,0.001221730476396038,-0.00015271630954950127
0.17850279808044434,-0.0035892338999999884,-0.00837487910000001,-0.016749758199999576,-0.001221730476396031,0.004428772976935613,-0.001221730476396024
0.1861100196838379,-0.0035892338999999884,-0.00837487910000001,-0.016749758199999576,0.0029016098814405727,-0.003054326190990081,-0.0027488935718910645
0.1938917636871338,-0.02153540339999993,0.005982056499999944,0.0035892339000014317,0.0029016098814405727,-0.003054326190990081,-0.0027488935718910645
0.2019960880279541,-0.007178467799999977,0.00837487910000001,0.01196411300000122,-0.0022907446432425607,0.0022907446432425538,0.0013744467859455392
0.20965242385864258,0.004785645200000022,0.0035892338999999884,-0.02632104859999984,0.0032070425005395753,-0.004123340357836611,-0.001832595714594043
0.21787190437316895,0.027517459900000096,0.03469592769999996,0.0023928226000009545,-0.0003054326190990095,0.0009162978572970215,0.0001527163095495082
0.22620725631713867,0.027517459900000096,0.03469592769999996,0.0023928226000009545,0.003665191429188086,-0.006566801310628659,0.00045814892864851076
0.23446440696716309,-0.00837487910000001,-0.0035892338999999884,0.0035892339000014317,0.003665191429188086,-0.006566801310628659,0.0
0.24390196800231934,-0.017946169499999942,0.00837487910000001,-0.0035892339000014317,0.0015271630954950335,-0.004276056667386105,0.0
0.25325441360473633,-0.007178467799999977,0.010767701699999965,0.020338992100001008,-0.004123340357836607,0.006261368691529656,0.000610865238198019
0.26284074783325195,-0.0047856451999999106,-0.00837487910000001,0.016749758199999576,0.0009162978572970215,-0.001221730476396038,-0.003665191429188093
0.27229905128479004,0.013160524300000032,-0.011964112999999998,0.014356935599998621,0.0010690141668465297,-0.002443460952792062,-0.0004581489286485038
0.2815208435058594,-0.022731814699999964,-0.004785645200000022,-0.03828516160000106,0.0032070425005395753,-0.004276056667386105,-0.0019853120241435512
0.2907721996307373,-0.022731814699999964,-0.019142580799999975,-0.05982056499999899,0.001832595714594043,-0.0029016098814405727,-0.0021380283336930525
0.3004944324493408,0.004785645200000022,-0.00837487910000001,-0.009571290400000265,0.0025961772623415633,-0.006414085001079151,-0.0022907446432425538
0.3100559711456299,-0.014356935599999954,0.0023928225999999553,-0.022731814700001962,-0.0019853120241435512,0.002443460952792048,0.0016798794050445487
0.31914520263671875,0.010767701700000076,-0.0023928225999999553,-0.0023928226000009545,-0.0019853120241435512,0.0035124751196385917,0.0019853120241435512
0.32754087448120117,0.011964112999999998,0.005982056499999944,0.010767701700000742,-0.002443460952792062,0.002443460952792048,-0.0003054326190990095
0.33904480934143066,0.0,0.009571290400000043,0.016749758199999576,0.0016798794050445418,-0.0015271630954950405,-0.0009162978572970215
0.35156726837158203,0.0,0.013160524300000032,-0.013160524299998144,-0.00045814892864851076,0.000610865238198019,-0.002443460952792055
0.3694586753845215,0.010767701700000076,0.022731814699999964,0.014356935599998621,-0.0019853120241435512,0.003054326190990067,-0.0007635815477475133
0.378864049911499,-0.0047856451999999106,0.014356935599999954,-0.017946169500000053,-0.0021380283336930594,0.005345070834232635,0.000610865238198019
0.3883359432220459,0.017946169500000053,0.004785645200000022,-0.004785645199998356,-0.0021380283336930594,0.0070249502392771696,0.0010690141668465297
0.39701247215270996,0.00837487910000001,0.0023928225999999553,-0.009571290400000265,0.00015271630954950127,0.0039706240482871025,-0.001832595714594043
0.40488243103027344,0.00837487910000001,0.0023928225999999553,-0.009571290400000265,0.00015271630954950127,0.006872233929727675,-0.00015271630954950127
0.41297125816345215,0.013160524300000032,0.005982056499999944,-0.0059820564999988335,-0.0029016098814405727,0.006872233929727675,-0.00015271630954950127
0.41884732246398926,-0.010767701699999965,-0.004785645200000022,0.026321048600003394,-0.00183259571459405,0.004734205596034616,0.0001527163095495082
0.4233438968658447,-0.010767701699999965,-0.004785645200000022,0.026321048600003394,-0.00183259571459405,0.004734205596034616,0.0001527163095495082
0.4295775890350342,0.004785645200000022,-0.005982056499999944,-0.011964112999997667,-0.000610865238198019,0.003665191429188086,-0.000610865238198012
0.4362049102783203,0.004785645200000022,-0.005982056499999944,-0.011964112999997667,-0.000610865238198019,0.003665191429188086,-0.000610865238198012
0.4416518211364746,-0.014356935599999954,-0.005982056499999944,-0.008374879099999788,0.0015271630954950335,-0.002443460952792062,-0.001832595714594043
0.44687581062316895,-0.014356935599999954,-0.005982056499999944,-0.008374879099999788,0.0015271630954950335,-0.002443460952792062,-0.001832595714594043
0.45167016983032227,-0.020338992099999897,-0.004785645200000022,0.03828516160000106,0.0021380283336930525,-0.005650503453331651,-0.002443460952792055
0.4566218852996826,-0.020338992099999897,-0.004785645200000022,0.03828516160000106,0.0021380283336930525,-0.005650503453331651,-0.002443460952792055
0.4613912105560303,0.0011964113000000332,-0.031106693799999974,-0.021535403400001485,-0.0032070425005395788,0.004886921905584124,0.0033597588100890835
0.46618199348449707,0.0011964113000000332,-0.031106693799999974,-0.021535403400001485,-0.0032070425005395788,0.004886921905584124,0.0033597588100890835
0.47086095809936523,0.0011964113000000332,0.0,0.020338992100001008,-0.0003054326190990095,0.0016798794050445487,0.0013744467859455392
0.4753851890563965,0.0011964113000000332,0.0,0.020338992100001008,-0.0003054326190990095,0.0016798794050445487,0.0013744467859455392
0.4799966812133789,-0.007178467799999977,-0.015553346899999987,-0.0059820564999988335,-0.001221730476396031,0.0009162978572970215,0.0016798794050445487
0.4845268726348877,-0.007178467799999977,-0.015553346899999987,-0.0059820564999988335,-0.001221730476396031,0.0009162978572970215,0.0016798794050445487
0.4890923500061035,0.0023928226000000663,0.013160524300000032,-0.015553346899999099,-0.0001527163095495082,0.0001527163095495082,0.0015271630954950405
0.49365997314453125,0.0023928226000000663,0.013160524300000032,-0.015553346899999099,-0.0001527163095495082,0.0001527163095495082,0.0015271630954950405
0.49837636947631836,0.0023928226000000663,-0.013160524300000032,-0.013160524299998144,-0.001221730476396031,0.0016798794050445487,0.0013744467859455392
0.5030479431152344,0.0,-0.013160524300000032,-0.013160524299998144,-0.001221730476396031,0.0016798794050445487,0.0013744467859455392
0.5076420307159424,0.0,-0.013160524300000032,-0.013160524299998144,-0.0019853120241435512,0.0015271630954950405,0.0033597588100890835
0.51224684715271,0.0035892338999999884,0.013160524300000032,-0.007178467799999311,-0.0019853120241435512,0.0015271630954950405,0.0033597588100890835
0.5168001651763916,0.0035892338999999884,0.013160524300000032,-0.007178467799999311,-0.0019853120241435512,0.0015271630954950405,0.0033597588100890835
0.5213198661804199,0.01674975820000013,-0.01674975820000002,-0.017946169500000053,-0.0010690141668465297,-0.004123340357836611,0.0027488935718910715
0.5258355140686035,0.01674975820000013,-0.01674975820000002,-0.017946169500000053,-0.0010690141668465297,-0.004123340357836611,0.0027488935718910715
0.5304362773895264,-0.0011964112999999221,-0.027517459899999985,0.013160524300001697,0.0038179077387375943,-0.013439035240356348,0.0032070425005395822
0.535008430480957,-0.0011964112999999221,-0.027517459899999985,0.013160524300001697,0.0038179077387375943,-0.013439035240356348,0.0032070425005395822
0.5395543575286865,-0.02991028249999994,-0.02033899210000001,0.020338992100001008,-0.0021380283336930594,-0.002443460952792062,0.00626136869152966
0.5441243648529053,-0.02991028249999994,-0.02033899210000001,0.020338992100001008,-0.0021380283336930594,-0.002443460952792062,0.00626136869152966
0.5488159656524658,-0.022731814699999964,-0.014356935599999954,0.0,-0.0027488935718910715,-0.0010690141668465297,0.0042760566673861085
0.5538754463195801,-0.022731814699999964,-0.014356935599999954,0.0,-0.0027488935718910715,-0.0010690141668465297,0.0042760566673861085
2.5600011348724365,-0.07298108929999997,0.007178467799999977,-0.011964112999997667,-0.0007635815477475202,0.005497787143782143,-0.006261368691529649
2.5648891925811768,-0.07298108929999997,0.007178467799999977,0.05024927459999873,0.0003054326190990095,0.006108652381980148,0.0019853120241435512
2.569457769393921,0.004785645200000022,0.007178467799999977,0.05024927459999873,0.0003054326190990095,0.006108652381980148,0.0019853120241435512
2.5740017890930176,0.004785645200000022,0.007178467799999977,0.05024927459999873,0.0003054326190990095,0.0013744467859455323,0.0015271630954950405
2.57871150970459,0.019142580800000086,0.014356935599999954,-0.08853443619999979,-0.0022907446432425607,0.0013744467859455323,0.0015271630954950405
2.583277940750122,0.019142580800000086,0.014356935599999954,-0.08853443619999979,-0.0022907446432425607,0.0013744467859455323,0.0015271630954950405
2.587867021560669,0.061016976300000025,0.04666004069999996,0.06939185539999926,0.0003054326190990095,-0.0015271630954950405,0.00045814892864851076
2.592433214187622,0.061016976300000025,0.04666004069999996,0.06939185539999926,0.0003054326190990095,-0.0015271630954950405,0.00045814892864851076
2.5970799922943115,0.007178467799999977,0.06221338759999995,-0.01914258080000053,0.0007635815477475202,0.010384709049366253,-0.007788531787024697
2.6016647815704346,0.007178467799999977,0.06221338759999995,-0.01914258080000053,0.0007635815477475202,0.010384709049366253,-0.007788531787024697
2.6063737869262695,-0.032303105099999896,-0.013160524300000032,0.0035892339000014317,-0.001221730476396031,0.007941248096574205,-0.00962112750161874
2.610978841781616,-0.032303105099999896,-0.013160524300000032,0.0035892339000014317,-0.001221730476396031,0.007941248096574205,-0.00962112750161874
2.615590810775757,0.04666004070000007,-0.027517459899999985,0.05024927459999873,-0.0019853120241435512,0.009315694882519737,-0.007788531787024697
2.6201303005218506,0.04666004070000007,-0.027517459899999985,0.05024927459999873,-0.0019853120241435512,0.009315694882519737,-0.007788531787024697
2.6247241497039795,0.04666004070000007,-0.027517459899999985,-0.051445685899999205,-0.0022907446432425607,0.01069014166846527,-0.014202616788103854
2.6293277740478516,0.00837487910000001,0.01674975820000002,-0.051445685899999205,-0.0022907446432425607,0.01069014166846527,-0.014202616788103854
2.6338725090026855,0.00837487910000001,0.01674975820000002,-0.051445685899999205,-0.0022907446432425607,0.0035124751196385917,-0.015729779883598888
2.6383633613586426,0.026321048600000063,-0.05862415369999996,0.01196411300000122,0.004123340357836604,0.0035124751196385917,-0.015729779883598888
2.642947196960449,0.026321048600000063,-0.05862415369999996,0.01196411300000122,0.004123340357836604,0.0035124751196385917,-0.015729779883598888
2.647465705871582,0.02512463730000003,-0.07896314580000008,-0.008374879099999788,-0.000610865238198019,0.004276056667386105,-0.0080939644061237
2.652170181274414,0.02512463730000003,-0.07896314580000008,-0.008374879099999788,-0.000610865238198019,0.004276056667386105,-0.0080939644061237
2.6568973064422607,0.031106693800000085,-0.06221338759999995,0.02751745990000032,-0.0019853120241435512,0.0035124751196385917,0.001221730476396031
2.6616508960723877,0.031106693800000085,-0.06221338759999995,0.02751745990000032,-0.0019853120241435512,0.0035124751196385917,0.001221730476396031
2.666278600692749,0.019142580800000086,-0.06699903279999997,-0.035892339000000106,-0.0016798794050445418,-0.0007635815477475272,0.008246680715673211
2.6708338260650635,0.019142580800000086,-0.06699903279999997,-0.035892339000000106,-0.0016798794050445418,-0.0007635815477475272,0.008246680715673211
2.6754446029663086,-0.019142580799999975,-0.06939185540000004,-0.004785645199998356,-0.000610865238198019,-0.007483099167925694,0.013591751549905842
2.680342674255371,-0.019142580799999975,-0.06939185540000004,-0.004785645199998356,-0.000610865238198019,-0.007483099167925694,0.013591751549905842
2.6849846839904785,0.004785645200000022,-0.039481572899999984,-0.020338992100001008,-0.002443460952792062,-0.00519235452468314,0.015118914645400883
2.689561605453491,0.004785645200000022,-0.039481572899999984,-0.020338992100001008,-0.002443460952792062,-0.00519235452468314,0.015118914645400883
2.694148540496826,0.004785645200000022,-0.039481572899999984,-0.020338992100001008,-0.004428772976935613,-0.001832595714594057,0.015424347264499889
2.698725700378418,0.019142580800000086,-0.014356935599999954,0.07058826669999974,-0.004428772976935613,-0.001832595714594057,0.015424347264499889
2.703402042388916,0.019142580800000086,-0.014356935599999954,0.07058826669999974,-0.004428772976935613,-0.001832595714594057,0.012828170002158325
2.7082509994506836,0.009571290400000043,-0.015553346899999987,-0.022731814700001962,-0.0038179077387375977,-0.0032070425005395753,0.012828170002158325
2.712822437286377,0.009571290400000043,-0.015553346899999987,-0.022731814700001962,-0.0038179077387375977,-0.0032070425005395753,0.012828170002158325
2.7173912525177,0.0035892338999999884,0.0011964113000000332,-0.011964112999997667,-0.0016798794050445418,-0.005497787143782143,0.01069014166846527
2.7219796180725098,0.0035892338999999884,0.0011964113000000332,-0.011964112999997667,-0.0016798794050445418,-0.005497787143782143,0.01069014166846527
2.726816415786743,0.0035892338999999884,0.027517459899999985,0.0,0.0003054326190990095,-0.0039706240482871025,0.010842857978014774
2.7314631938934326,0.0035892338999999884,0.027517459899999985,0.0,0.0003054326190990095,-0.0039706240482871025,0.010842857978014774
2.7359960079193115,0.015553346900000098,0.05024927459999995,-0.037088750300000584,-0.0021380283336930594,0.0025961772623415563,0.011453723216212793
2.7405240535736084,0.015553346900000098,0.05024927459999995,-0.037088750300000584,-0.0021380283336930594,0.0025961772623415563,0.011453723216212793
2.745246410369873,-0.014356935599999954,0.08255237969999996,-0.008374879099999788,-0.004123340357836607,0.005345070834232635,0.007177666548826681
2.7497987747192383,-0.014356935599999954,0.08255237969999996,-0.008374879099999788,-0.004123340357836607,0.005345070834232635,0.007177666548826681
2.754392623901367,-0.014356935599999954,0.08255237969999996,0.0035892339000014317,0.0021380283336930525,-0.00473420559603463,-0.0022907446432425538
2.7591288089752197,-0.0035892338999999884,0.06340979889999998,0.0035892339000014317,0.0021380283336930525,-0.00473420559603463,-0.0022907446432425538
2.7639846801757812,-0.0035892338999999884,0.06340979889999998,0.0035892339000014317,0.0025961772623415633,0.000610865238198019,-0.003665191429188093
2.7686078548431396,-0.0023928225999999553,0.04307080679999997,-0.022731814700001962,0.0025961772623415633,0.000610865238198019,-0.003665191429188093
2.7731709480285645,-0.0023928225999999553,0.04307080679999997,-0.022731814700001962,0.0025961772623415633,0.000610865238198019,-0.003665191429188093
2.77764892578125,0.011964112999999998,0.04666004069999996,-0.022731814700001962,0.0045814892864851145,-0.0010690141668465297,-0.012217304763960303
2.7820465564727783,0.011964112999999998,0.04666004069999996,-0.022731814700001962,0.0064140850010791645,-0.0003054326190990164,-0.015424347264499885
2.7950804233551025,-0.0035892338999999884,-0.02153540339999993,0.0023928226000009545,0.0013744467859455323,0.004734205596034616,-0.010537425358915761
2.8013670444488525,-0.0035892338999999884,-0.02153540339999993,0.0023928226000009545,0.0013744467859455323,0.004734205596034616,-0.010537425358915761
2.807321071624756,0.027517459900000096,-0.0035892338999999884,0.005982056500002386,0.00015271630954950127,0.0035124751196385917,-0.009773843811168248
2.813638687133789,0.027517459900000096,-0.0035892338999999884,0.005982056500002386,0.0015271630954950335,0.0033597588100890835,-0.007330382858376179
2.818197727203369,0.02033899210000012,-0.027517459899999985,-0.017946169500000053,0.0015271630954950335,0.0033597588100890835,-0.007330382858376179
2.822782278060913,0.02033899210000012,-0.027517459899999985,-0.017946169500000053,0.0015271630954950335,0.0033597588100890835,-0.007330382858376179
2.8273143768310547,0.026321048600000063,-0.057427742399999926,0.013160524300001697,0.0003054326190990095,-0.0001527163095495082,-0.0025961772623415633
2.831775426864624,0.026321048600000063,-0.057427742399999926,0.013160524300001697,0.0003054326190990095,-0.0001527163095495082,-0.0025961772623415633
2.836326837539673,-0.022731814699999964,-0.09810572660000005,-0.031106693799998197,0.000610865238198012,-0.005039638215133632,-0.0004581489286485038
2.840818405151367,-0.022731814699999964,-0.09810572660000005,-0.031106693799998197,0.000610865238198012,-0.005039638215133632,-0.0004581489286485038
2.8453314304351807,-0.02512463729999992,-0.11485548480000007,0.0035892339000014317,0.0021380283336930525,-0.005650503453331651,0.0027488935718910715
2.8498454093933105,-0.02512463729999992,-0.11485548480000007,0.0035892339000014317,0.0021380283336930525,-0.005650503453331651,0.0027488935718910715
2.854513168334961,-0.00837487910000001,-0.0957129040000001,0.009571290400000265,0.00045814892864851076,-0.010384709049366253,0.006719517620178174
2.859438896179199,-0.00837487910000001,-0.0957129040000001,0.009571290400000265,0.00045814892864851076,-0.010384709049366253,0.006719517620178174
2.864177703857422,-0.00837487910000001,-0.0957129040000001,0.03828516160000106,0.0016798794050445418,-0.012064588454410802,0.004581489286485118
2.868788480758667,0.009571290400000043,-0.07896314580000008,0.03828516160000106,0.0016798794050445418,-0.012064588454410802,0.004581489286485118
2.8732893466949463,0.009571290400000043,-0.07896314580000008,0.03828516160000106,0.0016798794050445418,-0.012064588454410802,0.005650503453331644
2.8778138160705566,0.010767701700000076,-0.07417750060000006,0.01196411300000122,-0.0038179077387375977,-0.005039638215133632,0.005650503453331644
2.882317543029785,0.010767701700000076,-0.07417750060000006,0.01196411300000122,-0.0038179077387375977,-0.005039638215133632,0.005650503453331644
2.8869166374206543,-0.011964112999999998,-0.05982056499999999,0.021535403400001485,0.0009162978572970215,-0.008246680715673207,0.0016798794050445487
2.8913772106170654,-0.011964112999999998,-0.05982056499999999,0.021535403400001485,0.0009162978572970215,-0.008246680715673207,0.0016798794050445487
2.895987033843994,-0.01674975819999991,-0.06819544410000011,-0.017946169500000053,-0.000610865238198019,-0.009162978572970243,0.003970624048287099
2.900556802749634,-0.01674975819999991,-0.06819544410000011,-0.017946169500000053,-0.000610865238198019,-0.009162978572970243,0.003970624048287099
2.9052343368530273,0.027517459900000096,-0.08255237970000007,-0.0011964113000004772,-0.0035124751196385882,-0.003665191429188086,0.01267545369260882
2.9105565547943115,0.027517459900000096,-0.08255237970000007,-0.0011964113000004772,-0.0035124751196385882,-0.003665191429188086,0.01267545369260882
2.9157350063323975,0.052642097200000015,-0.061016976299999914,-0.037088750300000584,-0.004123340357836607,-0.012064588454410802,0.016798794050445424
2.9202702045440674,0.052642097200000015,-0.061016976299999914,-0.037088750300000584,-0.004123340357836607,-0.012064588454410802,0.016798794050445424
2.924767255783081,0.02991028250000005,-0.0717846780000001,0.026321048600003394,-0.006872233929727675,-0.013744467859455337,0.02107485071783153
2.929356813430786,0.02991028250000005,-0.0717846780000001,0.026321048600003394,-0.006872233929727675,-0.013744467859455337,0.02107485071783153
2.9338369369506836,0.02991028250000005,-0.0717846780000001,0.026321048600003394,-0.009773843811168248,-0.023060162741975088,0.0238237442897226
2.938326597213745,-0.04666004069999996,-0.08255237970000007,0.022731814700001962,-0.009773843811168248,-0.023060162741975088,0.0238237442897226
2.9433155059814453,-0.04666004069999996,-0.08255237970000007,0.022731814700001962,-0.011301006906663285,-0.027794368338009703,0.029932396671702756
2.9483981132507324,-0.020338992099999897,-0.10049854920000001,-0.020338992100001008,-0.011301006906663285,-0.027794368338009703,0.029932396671702756
2.9534270763397217,-0.020338992099999897,-0.10049854920000001,-0.020338992100001008,-0.018478673455489966,-0.021074850717831536,0.04199698512611356
2.958371639251709,-0.027517459899999985,-0.11126625090000009,-0.05383850850000016,-0.018478673455489966,-0.021074850717831536,0.04199698512611356
2.962933301925659,-0.027517459899999985,-0.11126625090000009,-0.05383850850000016,-0.018478673455489966,-0.021074850717831536,0.04199698512611356
2.9675114154815674,0.13758729950000015,-0.2572284295,0.026321048600003394,-0.012828170002158322,-0.026267205242514663,0.04688390703169768
2.9719860553741455,0.13758729950000015,-0.2572284295,0.026321048600003394,-0.012828170002158322,-0.026267205242514663,0.04688390703169768
2.976362705230713,-0.06340979889999998,-0.430708068,0.05503491980000064,-0.0025961772623415633,-0.030237829290801765,0.03283400655314333
2.9807839393615723,-0.06340979889999998,-0.430708068,0.05503491980000064,-0.0025961772623415633,-0.030237829290801765,0.03283400655314333
2.9852089881896973,-0.13519447689999992,-0.5611168997,-0.10169496049999793,0.0,-0.022602013813326563,0.02901609881440573
2.9897685050964355,-0.13519447689999992,-0.5611168997,-0.10169496049999793,0.0,-0.022602013813326563,0.02901609881440573
2.994198799133301,-0.13519447689999992,-0.5347958510999999,-0.07058826669999974,-0.010995574287564275,-0.0032070425005395753,0.04474587869800463
2.9987590312957764,-0.10049854919999995,-0.5347958510999999,-0.07058826669999974,-0.010995574287564275,-0.0032070425005395753,0.04474587869800463
3.0032527446746826,-0.10049854919999995,-0.5347958510999999,-0.07058826669999974,-0.010995574287564275,-0.009773843811168234,0.039706240482871
3.007808208465576,0.03828516160000006,-0.4642075844,-0.03469592769999963,-0.009010262263420728,-0.009773843811168234,0.039706240482871
3.0125386714935303,0.03828516160000006,-0.4642075844,-0.03469592769999963,-0.009010262263420728,-0.009773843811168234,0.039706240482871
3.016953706741333,0.22612173570000005,-0.1639083481,0.05264209719999968,-0.016340645121796914,-0.006108652381980148,0.018784106074588976
3.0213520526885986,0.22612173570000005,-0.1639083481,0.05264209719999968,-0.016340645121796914,-0.006108652381980148,0.018784106074588976
3.0260753631591797,0.1878365741000001,0.45942193919999996,0.06699903280000186,-0.03344487179134134,0.0045814892864851214,-0.03100141083854928
3.030585527420044,0.1878365741000001,0.45942193919999996,0.06699903280000186,-0.03344487179134134,0.0045814892864851214,-0.03100141083854928
3.035163402557373,-0.23808584869999994,0.8841479507,0.020338992100001008,-0.047494772269895694,0.014355333097653356,-0.07467827536970736
3.0396456718444824,-0.23808584869999994,0.8841479507,0.020338992100001008,-0.047494772269895694,0.014355333097653356,-0.07467827536970736
3.0440900325775146,-0.23808584869999994,0.8841479507,0.11844471870000106,-0.03420845333908886,-0.0001527163095495082,-0.08292495608538057
3.048565626144409,-0.3409772204999999,1.0336993631999998,0.11844471870000106,-0.03420845333908886,-0.0001527163095495082,-0.08292495608538057
3.0533015727996826,-0.3409772204999999,1.0336993631999998,0.11844471870000106,-0.026114488932965158,-0.011606439525762291,-0.056352318223766906
5.060879468917847,0.10169496050000004,0.0957129040000001,0.6281159325000019,-0.01649336143134642,-0.002443460952792062,0.0009162978572970285
5.065679311752319,0.10169496050000004,0.0957129040000001,0.6281159325000019,-0.01649336143134642,-0.002443460952792062,0.0009162978572970285
5.070437908172607,0.10169496050000004,0.0957129040000001,0.6281159325000019,0.0019853120241435443,-0.0007635815477475272,0.002443460952792062
5.075130939483643,-0.023928225999999997,0.2285145582999999,-0.501296334700001,0.0019853120241435443,-0.0007635815477475272,0.002443460952792062
5.079845666885376,-0.023928225999999997,0.2285145582999999,-0.501296334700001,0.014355333097653362,0.005803219762881132,-0.003665191429188093
5.0846874713897705,-0.06340979889999998,-0.9523433948,-0.19501504189999963,0.014355333097653362,0.005803219762881132,-0.003665191429188093
5.089373588562012,-0.06340979889999998,-0.9523433948,-0.19501504189999963,0.014355333097653362,0.005803219762881132,-0.003665191429188093
5.093995571136475,-0.08853443619999996,0.0023928225999999553,-0.5850451256999989,0.009162978572970229,0.001221730476396038,-0.0013744467859455323
5.098775863647461,-0.08853443619999996,0.0023928225999999553,-0.5850451256999989,0.009162978572970229,0.001221730476396038,-0.0013744467859455323
5.1034955978393555,0.25004996170000005,0.9391828705000002,0.6915257313999987,-0.012522737383059316,0.007330382858376186,0.0064140850010791645
5.1079254150390625,0.25004996170000005,0.9391828705000002,0.6915257313999987,-0.012522737383059316,0.007330382858376186,0.0064140850010791645
5.112401723861694,0.3397808092000001,0.09690931530000002,0.22372891310000043,0.012828170002158315,0.005497787143782143,0.02901609881440573
5.116891860961914,0.3397808092000001,0.09690931530000002,0.22372891310000043,0.012828170002158315,0.005497787143782143,0.02901609881440573
5.121334791183472,-0.04785645199999988,-0.789631458,0.4953142781999986,0.007177666548826678,0.011606439525762291,-0.003665191429188093
5.125744342803955,-0.04785645199999988,-0.789631458,0.4953142781999986,0.007177666548826678,0.011606439525762291,-0.003665191429188093
5.130096197128296,-0.04785645199999988,-0.789631458,0.4953142781999986,-0.0038179077387375977,-0.021532999646480033,-0.022143864884678052
5.134665250778198,-0.3960121403,0.25363919560000003,-0.4881358103999993,-0.0038179077387375977,-0.021532999646480033,-0.022143864884678052
5.139838933944702,-0.3960121403,0.25363919560000003,-0.4881358103999993,0.007483099167925687,-0.016035212502697904,-0.007483099167925687
5.144272804260254,0.2967100024000001,-0.24287149389999996,-0.5060819798999994,0.007483099167925687,-0.016035212502697904,-0.007483099167925687
5.148745536804199,0.2967100024000001,-0.24287149389999996,-0.5060819798999994,0.007483099167925687,-0.016035212502697904,-0.007483099167925687
5.153151988983154,0.41036907590000005,-0.5180460929,0.31824540579999905,0.004276056667386105,0.004734205596034616,0.010842857978014774
5.158305406570435,0.41036907590000005,-0.5180460929,0.31824540579999905,0.004276056667386105,0.004734205596034616,0.010842857978014774
5.16355299949646,0.06939185540000004,-0.13758729950000004,-0.014356935599998621,0.017715091907742446,0.030543261909900768,0.0016798794050445487
5.16798210144043,0.06939185540000004,-0.13758729950000004,-0.014356935599998621,0.017715091907742446,0.030543261909900768,0.0016798794050445487
5.172382116317749,0.33379875270000003,-0.25483560689999996,1.2251251711999984,-0.01710422666954443,0.03130684345764829,-0.0009162978572970215
5.176819086074829,0.33379875270000003,-0.25483560689999996,1.2251251711999984,-0.01710422666954443,0.03130684345764829,-0.0009162978572970215
5.181281566619873,0.3756731482000001,0.3529413334999999,0.09930213790000053,0.03054326190990076,-0.006261368691529656,0.0032070425005395822
5.185884475708008,0.3756731482000001,0.3529413334999999,0.09930213790000053,0.03054326190990076,-0.006261368691529656,0.0032070425005395822
5.190327167510986,0.3756731482000001,0.3529413334999999,-0.6532405697999977,0.007330382858376179,-0.007788531787024697,-0.035277467505935384
5.19474196434021,-0.15912270289999997,0.2691925425,-0.6532405697999977,0.007330382858376179,-0.007788531787024697,-0.035277467505935384
5.199240684509277,-0.15912270289999997,0.2691925425,-0.6532405697999977,0.007330382858376179,-0.007788531787024697,-0.035277467505935384
5.203694105148315,-0.07896314579999997,-0.41395830980000003,-0.20817556619999777,-0.0015271630954950405,-0.003054326190990081,-0.025809056313866145
5.208143711090088,-0.07896314579999997,-0.41395830980000003,-0.20817556619999777,-0.0015271630954950405,-0.003054326190990081,-0.025809056313866145
5.21256685256958,0.25124637299999997,0.5371886736999999,-0.6233302873,0.006872233929727668,0.03222314131494531,-0.035277467505935384
5.217016935348511,0.25124637299999997,0.5371886736999999,-0.6233302873,0.006872233929727668,0.03222314131494531,-0.035277467505935384
5.221472263336182,-0.27397818769999993,-0.5419743189,0.2536391956000017,0.03405573702953935,0.04291328298341057,-0.02932153143350473
5.225888967514038,-0.27397818769999993,-0.5419743189,0.2536391956000017,0.03405573702953935,0.04291328298341057,-0.02932153143350473
5.2302985191345215,-0.27397818769999993,-0.5419743189,-0.23449661480000117,0.0064140850010791645,0.04550946024575214,-0.016187928812247405
5.235038757324219,-0.28474588939999995,0.5168496816,-0.23449661480000117,0.0064140850010791645,0.04550946024575214,-0.016187928812247405
5.239687204360962,-0.28474588939999995,0.5168496816,-0.23449661480000117,0.04031710572106901,0.02779436833800969,-0.012217304763960303
5.244118690490723,-0.0047856451999999106,-0.21296121140000002,0.2584248408000036,0.04031710572106901,0.02779436833800969,-0.012217304763960303
5.248924732208252,-0.0047856451999999106,-0.21296121140000002,0.2584248408000036,0.04031710572106901,0.02779436833800969,-0.012217304763960303
5.253604412078857,0.06939185540000004,-0.5874379483000001,-0.8231309744000015,0.024892758456569124,-0.011606439525762291,0.0022907446432425607
7.259956359863281,0.2081755662000001,0.2524427843,0.6927221426999992,-0.01145372321621279,0.004276056667386105,0.07376197751241036
7.264798641204834,0.2081755662000001,0.2524427843,0.6927221426999992,-0.01145372321621279,0.004276056667386105,0.07376197751241036
7.269579648971558,0.031106693800000085,0.30987052670000004,-0.09930213789999698,0.01038470904936626,0.02183843226557905,0.07422012644105885
7.274417161941528,0.031106693800000085,0.30987052670000004,-0.09930213789999698,0.01038470904936626,0.02183843226557905,0.07422012644105885
7.279157876968384,0.08374879099999999,-0.7142575461,-0.6245266986000004,0.0029016098814405727,0.036804630601430424,0.08552113334772216
7.283863544464111,0.08374879099999999,-0.7142575461,-0.6245266986000004,0.0029016098814405727,0.036804630601430424,0.08552113334772216
7.288666486740112,-0.22253250179999995,0.3409772205,0.1890329854000008,0.01084285797801477,0.039706240482871,0.10735956561330119
7.293403387069702,-0.22253250179999995,0.3409772205,0.1890329854000008,0.01084285797801477,0.039706240482871,0.10735956561330119
7.298129558563232,-0.19621145319999994,-0.8386843213,-0.09212367010000122,0.00992656012071775,0.03298672286269283,0.11178833859023682
7.30284571647644,-0.19621145319999994,-0.8386843213,-0.09212367010000122,0.00992656012071775,0.03298672286269283,0.11178833859023682
7.307653903961182,-0.18185451759999993,0.41036907589999994,-0.4809573426,-0.015271630954950387,-0.03039054560035126,0.0836885376331281
7.312092542648315,-0.18185451759999993,0.41036907589999994,-0.4809573426,-0.015271630954950387,-0.03039054560035126,0.0836885376331281
7.316579341888428,-0.18185451759999993,0.41036907589999994,-0.4809573426,-0.006108652381980155,-0.05314527572322736,0.07437284275060838
7.32098913192749,0.013160524300000032,-0.1926222193,0.11605189610000011,-0.006108652381980155,-0.05314527572322736,0.07437284275060838
7.325424671173096,0.013160524300000032,-0.1926222193,0.11605189610000011,-0.006108652381980155,-0.05314527572322736,0.07437284275060838
7.329908847808838,0.08614161360000006,-1.0157531937,-0.26560330859999937,0.014813482026301866,-0.011606439525762291,0.10155634585042005
7.334329128265381,0.08614161360000006,-1.0157531937,-0.26560330859999937,0.014813482026301866,-0.011606439525762291,0.10155634585042005
7.33877158164978,-0.12921242039999992,1.1916256548000002,0.4666004070000014,-0.02229658119422756,0.013744467859455337,0.08842274322916271
7.343163967132568,-0.12921242039999992,1.1916256548000002,0.4666004070000014,-0.02229658119422756,0.013744467859455337,0.08842274322916271
7.347657680511475,-0.39481572899999995,-0.42472601150000006,-0.3421736318000015,0.006719517620178167,-0.013133602621257331,0.10476338835095964
7.35205864906311,-0.39481572899999995,-0.42472601150000006,-0.3421736318000015,0.006719517620178167,-0.013133602621257331,0.10476338835095964
7.356569766998291,-0.39481572899999995,-0.015553346899999987,0.19022939670000127,-0.03298672286269283,-0.007941248096574205,0.10430523942231112
7.3614466190338135,0.33379875270000003,-0.015553346899999987,0.19022939670000127,-0.03298672286269283,-0.007941248096574205,0.10430523942231112
7.365898132324219,0.33379875270000003,-0.015553346899999987,0.19022939670000127,-0.03298672286269283,-0.03329215548179183,0.09178250203925181
7.370408773422241,0.2847458894000001,-0.6664010941,0.06580262150000138,0.018020524526841455,-0.03329215548179183,0.09178250203925181
7.374818325042725,0.2847458894000001,-0.6664010941,0.06580262150000138,0.018020524526841455,-0.03329215548179183,0.09178250203925181
7.379526138305664,0.0035892338999999884,0.2476571391000001,0.3014956475999995,-0.0013744467859455323,-0.04214970143566307,0.0795651972752915
7.38397741317749,0.0035892338999999884,0.2476571391000001,0.3014956475999995,-0.0013744467859455323,-0.04214970143566307,0.0795651972752915
7.388439416885376,0.47856452000000016,-0.5599204884,0.5682953674999993,-0.0039706240482871025,-0.023060162741975088,0.09529497715889039
7.392860651016235,0.47856452000000016,-0.5599204884,0.5682953674999993,-0.0039706240482871025,-0.023060162741975088,0.09529497715889039
7.397252798080444,0.03469592770000007,-0.09212367010000011,-0.9858429112000024,0.0029016098814405727,0.013286318930806826,0.10048733168357353
7.401634454727173,0.03469592770000007,-0.09212367010000011,-0.9858429112000024,0.0029016098814405727,0.013286318930806826,0.10048733168357353
7.406058311462402,0.03469592770000007,-0.09212367010000011,-0.9858429112000024,0.024892758456569124,0.007330382858376186,0.0875064453718657
7.410674095153809,0.0023928226000000663,-1.0396814197,0.24406790520000143,0.024892758456569124,0.007330382858376186,0.0875064453718657
7.415091037750244,0.0023928226000000663,-1.0396814197,0.24406790520000143,0.024892758456569124,0.007330382858376186,0.0875064453718657
7.41963267326355,0.09332008140000003,2.0769700168,-0.719043191299999,-0.03695734691097993,0.009315694882519737,0.07681630370340042
7.424080848693848,0.09332008140000003,2.0769700168,-0.719043191299999,-0.03695734691097993,0.009315694882519737,0.07681630370340042
7.428524971008301,-0.25004996169999993,-1.4476576730000001,0.7034898444000035,0.03298672286269282,-0.02855794988575723,0.06139195643890054
7.432955741882324,-0.25004996169999993,-1.4476576730000001,0.7034898444000035,0.03298672286269282,-0.02855794988575723,0.06139195643890054
7.43739652633667,0.5347958510999999,0.3840480272999999,-1.6977076346999986,-0.02977968036215325,-0.01924225500323748,0.04092797095926703
7.441800594329834,0.5347958510999999,0.3840480272999999,-1.6977076346999986,-0.02977968036215325,-0.01924225500323748,0.04092797095926703
7.446208715438843,0.5347958510999999,0.3840480272999999,-1.6977076346999986,0.02183843226557905,-0.0274889357189107,0.04520402762665314
7.4506614208221436,0.2572284295,0.004785645200000022,0.6053841177999999,0.02183843226557905,-0.0274889357189107,0.04520402762665314
7.4550793170928955,0.2572284295,0.004785645200000022,0.6053841177999999,0.02183843226557905,-0.0274889357189107,0.04520402762665314
7.459694147109985,0.5156532703000001,-0.3326023414,-0.2847458893999999,-0.014049900478554353,-0.012064588454410802,0.051007247389534285
7.46414041519165,0.5156532703000001,-0.3326023414,-0.2847458893999999,-0.014049900478554353,-0.012064588454410802,0.051007247389534285
7.468611240386963,-0.17946169499999992,-0.14117653340000003,0.541974318900003,0.01847867345548996,-0.012980886311707837,0.04016438941151951
7.473100185394287,-0.17946169499999992,-0.14117653340000003,0.541974318900003,0.01847867345548996,-0.012980886311707837,0.04016438941151951
7.477524995803833,-0.17706887239999997,-0.4331008906,0.6293123438000023,-0.0021380283336930594,-0.036193765363232405,0.03237585762449482
7.481910943984985,-0.17706887239999997,-0.4331008906,0.6293123438000023,-0.0021380283336930594,-0.036193765363232405,0.03237585762449482
7.486628532409668,-0.44865423749999994,0.2799602442000001,-0.6077769404000009,-0.01084285797801477,-0.010995574287564272,0.03848451000647497
7.491485595703125,-0.44865423749999994,0.2799602442000001,-0.6077769404000009,-0.01084285797801477,-0.010995574287564272,0.03848451000647497
7.496497631072998,-0.44865423749999994,0.38763726119999997,1.0947163394999997,-0.013286318930806836,-0.012064588454410802,0.058643062867009474
7.501388311386108,-0.40438701939999994,0.38763726119999997,1.0947163394999997,-0.013286318930806836,-0.012064588454410802,0.058643062867009474
7.50614333152771,-0.40438701939999994,0.38763726119999997,1.0947163394999997,0.017715091907742446,0.005039638215133632,0.06765332513043021
7.510764122009277,-0.16869399329999996,0.10767701699999999,0.24287149390000096,0.017715091907742446,0.005039638215133632,0.06765332513043021
7.515287160873413,-0.16869399329999996,0.10767701699999999,0.24287149390000096,0.017715091907742446,-0.004428772976935613,0.05772676500971245
7.52030348777771,0.24167508260000004,-0.8566304908,0.3421736318000015,0.027183503099811684,-0.004428772976935613,0.05772676500971245
7.525343418121338,0.24167508260000004,-0.8566304908,0.3421736318000015,0.027183503099811684,-0.004428772976935613,0.061697389057999555
7.530181169509888,0.6520441585000001,0.13040883170000006,-0.5240281493999994,0.0,0.014049900478554353,0.061697389057999555
7.53516149520874,0.6520441585000001,0.13040883170000006,-0.5240281493999994,0.0,0.014049900478554353,0.03558290012503439
7.540074110031128,0.4127618985,-0.2368894374,-0.22492532439999735,0.020311269170084002,-0.0355829001250344,0.03558290012503439
7.5449371337890625,0.4127618985,-0.2368894374,-0.22492532439999735,0.020311269170084002,-0.0355829001250344,0.03558290012503439
7.549831390380859,0.23090738090000007,-0.12562318650000004,-0.6903293200999983,-0.0032070425005395788,-0.06566801310628664,0.014660765716752368
7.554833889007568,0.23090738090000007,-0.12562318650000004,-0.6903293200999983,-0.0032070425005395788,-0.06566801310628664,0.014660765716752368
7.559909105300903,-0.29790641369999993,-0.29192435720000004,0.20338992100000297,0.004276056667386105,-0.06032294227205401,0.02168571595602955
7.564814567565918,-0.29790641369999993,-0.29192435720000004,0.20338992100000297,0.004276056667386105,-0.06032294227205401,0.02168571595602955
7.5696938037872314,-0.28713871199999996,0.27038895380000005,0.14237294469999995,-0.023671027980173096,-0.039706240482871,0.0277943683380097
7.574539661407471,-0.28713871199999996,0.27038895380000005,0.14237294469999995,-0.023671027980173096,-0.039706240482871,0.0277943683380097
7.579328775405884,0.009571290400000043,-0.5922235935,-0.12562318650000037,0.01252273738305932,-0.025656340004316644,0.04505131131710363
7.584573745727539,0.009571290400000043,-0.5922235935,-0.12562318650000037,0.01252273738305932,-0.025656340004316644,0.04505131131710363
7.58946681022644,-0.09810572659999994,0.3493520996,-0.007178467799999311,-0.012980886311707827,0.009162978572970229,0.049174651674940235
7.594583749771118,-0.09810572659999994,0.3493520996,-0.007178467799999311,-0.012980886311707827,0.009162978572970229,0.049174651674940235
7.59982705116272,0.03828516160000006,0.21535403399999997,-0.12562318650000037,-0.01832595714594046,0.0117591558353118,0.050701814770435276
7.604714870452881,0.03828516160000006,0.21535403399999997,-0.12562318650000037,-0.01832595714594046,0.0117591558353118,0.050701814770435276
7.609858274459839,0.3361915753000001,-0.9870393225,0.026321048600003394,0.0016798794050445418,-0.0032070425005395753,0.05772676500971245
7.614720106124878,0.3361915753000001,-0.9870393225,0.026321048600003394,0.0016798794050445418,-0.0032070425005395753,0.05772676500971245
7.619637489318848,0.06340979890000009,0.5730810126999998,-0.34815568829999677,0.00901026226342072,-0.012828170002158329,0.04810563750809371
7.62459921836853,0.06340979890000009,0.5730810126999998,-0.34815568829999677,0.00901026226342072,-0.012828170002158329,0.04810563750809371
7.629370927810669,-0.29671000239999995,0.13878371079999996,0.06939185539999926,-0.005955936072430654,-0.039248091554222486,0.04245513405476207
7.634004592895508,-0.29671000239999995,0.13878371079999996,0.06939185539999926,-0.005955936072430654,-0.039248091554222486,0.04245513405476207
7.638925075531006,0.04187439550000005,-0.08135596840000003,-0.046660040699997296,0.0038179077387375943,-0.0395535241733215,0.052076261556380815
7.64339280128479,0.04187439550000005,-0.08135596840000003,-0.046660040699997296,0.0038179077387375943,-0.0395535241733215,0.052076261556380815
7.647921323776245,-0.2955135910999999,-0.16630117069999995,0.015553346899999099,0.028252517266658207,-0.03298672286269283,0.04963280060358875
7.652432441711426,-0.2955135910999999,-0.16630117069999995,0.015553346899999099,0.028252517266658207,-0.03298672286269283,0.04963280060358875
7.656914710998535,-0.01316052429999992,0.07178467799999988,-0.021535403400001485,-0.008857545953871226,-0.0001527163095495082,0.041844268816564056
7.661454439163208,-0.01316052429999992,0.07178467799999988,-0.021535403400001485,-0.008857545953871226,-0.0001527163095495082,0.041844268816564056
7.665893077850342,-0.01316052429999992,0.07178467799999988,-0.021535403400001485,0.024587325837470114,-0.005803219762881159,0.04489859500755413
7.670300722122192,-0.0047856451999999106,0.1758724611,-0.3888336724999988,0.024587325837470114,-0.005803219762881159,0.04489859500755413
7.674788236618042,-0.0047856451999999106,0.1758724611,-0.3888336724999988,0.024587325837470114,-0.005803219762881159,0.04489859500755413
7.679214000701904,-0.010767701699999965,-0.4713860522,0.1447657673000009,0.0039706240482870955,0.011301006906663288,0.03817907738737596
7.6836607456207275,-0.010767701699999965,-0.4713860522,0.1447657673000009,0.0039706240482870955,0.011301006906663288,0.03817907738737596
7.688077926635742,-0.019142580799999975,-0.9762716208,-0.38644084989999783,0.001221730476396024,0.014966198335851374,0.05589416929511841
7.692528486251831,-0.019142580799999975,-0.9762716208,-0.38644084989999783,0.001221730476396024,0.014966198335851374,0.05589416929511841
7.697084665298462,0.11964112999999998,0.59820565,-0.27158536510000175,-0.0438295808407076,-0.0038179077387375943,0.04489859500755413
7.701488018035889,0.11964112999999998,0.59820565,-0.27158536510000175,-0.0438295808407076,-0.0038179077387375943,0.04489859500755413
7.705962181091309,0.11964112999999998,0.59820565,-0.27158536510000175,0.04291328298341058,-0.025809056313866152,0.050243665841786765
7.710904359817505,0.06460621020000001,-1.0181460163,0.43549371319999963,0.04291328298341058,-0.025809056313866152,0.050243665841786765
7.71547794342041,0.06460621020000001,-1.0181460163,0.43549371319999963,-0.006261368691529656,0.03130684345764829,0.027183503099811684
7.7200682163238525,-0.1519442351,0.16151552550000003,-0.13519447689999708,-0.006261368691529656,0.03130684345764829,0.027183503099811684
7.724535942077637,-0.1519442351,0.16151552550000003,-0.13519447689999708,-0.006261368691529656,0.03130684345764829,0.027183503099811684
7.728988170623779,-0.3756731482,0.2679961312,0.39601214030000165,-0.006872233929727675,0.03466660226773737,0.04321871560250959
7.733473300933838,-0.3756731482,0.2679961312,0.39601214030000165,-0.006872233929727675,0.03466660226773737,0.04321871560250959
7.737945079803467,0.29312076850000013,-0.6281159325,0.14117653339999947,0.0070249502392771696,-0.019089538693687985,0.05268712679457882
7.74239706993103,0.29312076850000013,-0.6281159325,0.14117653339999947,0.0070249502392771696,-0.019089538693687985,0.05268712679457882
7.746816396713257,0.41156548719999997,-0.7274180704,-0.3433700430999984,0.014202616788103854,-0.03420845333908887,0.01893682238413848
7.751234292984009,0.41156548719999997,-0.7274180704,-0.3433700430999984,0.014202616788103854,-0.03420845333908887,0.01893682238413848
7.7557361125946045,0.41156548719999997,-0.7274180704,-0.3433700430999984,-0.003054326190990081,-0.035735616434583894,0.013591751549905842
7.760289430618286,-0.3696910916999999,1.3004990831,-0.032303105099998675,-0.003054326190990081,-0.035735616434583894,0.013591751549905842
7.764755964279175,-0.3696910916999999,1.3004990831,-0.032303105099998675,-0.003054326190990081,-0.035735616434583894,0.013591751549905842
7.769158601760864,0.1519442351000001,-0.7824529902,0.7250252477999979,0.0070249502392771696,-0.03588833274413342,0.03252857393404432
7.773988962173462,0.1519442351000001,-0.7824529902,0.7250252477999979,0.0070249502392771696,-0.03588833274413342,0.03252857393404432
9.780379295349121,-0.07896314579999997,-0.15912270289999997,-0.046660040699997296,0.010690141668465263,-0.0009162978572970215,0.01786780821729195
9.785253763198853,0.02512463730000003,-0.2404786713,0.005982056500002386,0.009468411192069238,-0.006566801310628659,0.013744467859455347
9.790962219238281,0.02512463730000003,-0.2404786713,0.005982056500002386,0.009468411192069238,-0.006566801310628659,0.013744467859455347
9.796299934387207,0.022731814700000075,-0.25962125210000003,-0.04426721809999634,0.0051923545246831265,-0.007483099167925694,0.007941248096574201
9.801530599594116,0.022731814700000075,-0.25962125210000003,-0.04426721809999634,0.0051923545246831265,-0.007483099167925694,0.007941248096574201
9.806363821029663,-0.12801600909999994,-0.14596217860000005,-0.11365907349999915,-0.0025961772623415633,-0.0015271630954950405,0.007941248096574201
9.81154751777649,-0.12801600909999994,-0.14596217860000005,-0.11365907349999915,-0.0025961772623415633,-0.0015271630954950405,0.007330382858376186
9.81637978553772,-0.08015955709999995,-0.09332008140000003,-0.05982056499999899,-0.006108652381980155,-0.011453723216212783,0.007330382858376186
9.821116209030151,-0.08015955709999995,-0.09332008140000003,-0.05982056499999899,-0.006108652381980155,-0.011453723216212783,0.007330382858376186
9.826064109802246,-0.10049854919999995,0.11006983960000005,-0.06221338759999995,-0.0054977871437821395,-0.0117591558353118,0.006719517620178174
9.83113718032837,-0.10049854919999995,0.11006983960000005,-0.06221338759999995,-0.0054977871437821395,-0.0117591558353118,0.006719517620178174
9.835905075073242,-0.1244267751999999,0.30628129279999994,0.04785645199999777,-0.005955936072430654,-0.0010690141668465297,0.006108652381980155
9.840790748596191,-0.1244267751999999,0.30628129279999994,0.04785645199999777,-0.005955936072430654,-0.0010690141668465297,0.006108652381980155
9.84574818611145,-0.09690931529999997,0.3804587934,0.09810572660000005,-0.00519235452468313,0.002443460952792048,0.007177666548826681
9.850648880004883,-0.09690931529999997,0.3804587934,0.09810572660000005,-0.00519235452468313,0.002443460952792048,0.007177666548826681
9.855540752410889,-0.10169496049999993,0.3696910916999999,0.010767701700000742,-0.00183259571459405,-0.0003054326190990164,0.010384709049366263
9.86031723022461,-0.10169496049999993,0.3696910916999999,0.010767701700000742,-0.00183259571459405,-0.0003054326190990164,0.010384709049366263
9.865028858184814,-0.057427742399999926,0.28594230070000004,0.03349951639999915,0.0,-0.005039638215133632,0.014355333097653366
9.869839429855347,-0.057427742399999926,0.28594230070000004,0.03349951639999915,0.0,-0.005039638215133632,0.014355333097653366
9.874415159225464,-0.10289137179999996,0.16510475940000002,0.05503491980000064,0.006872233929727668,-0.014355333097653356,0.015577063574049393
9.878979682922363,-0.10289137179999996,0.16510475940000002,0.05503491980000064,0.006872233929727668,-0.014355333097653356,0.015577063574049393
9.883484840393066,-0.13878371079999996,0.05503491979999997,-0.03948157290000154,0.00901026226342072,-0.020463985479633517,0.014355333097653366
9.887935400009155,-0.13878371079999996,0.05503491979999997,-0.03948157290000154,0.00901026226342072,-0.020463985479633517,0.014355333097653366
9.892441034317017,-0.13878371079999996,0.05503491979999997,-0.020338992100001008,0.004276056667386105,-0.011911872144861307,0.022754730122876075
9.896888256072998,-0.1304088316999999,-0.02871387120000002,-0.020338992100001008,0.004276056667386105,-0.011911872144861307,0.022754730122876075
9.901353597640991,-0.1304088316999999,-0.02871387120000002,-0.020338992100001008,0.004276056667386105,-0.011911872144861307,0.022754730122876075
9.905799150466919,-0.06340979889999998,-0.08494520230000002,0.02751745990000032,0.0033597588100890835,-0.008399397025222716,0.022296581194227564
9.910314083099365,-0.06340979889999998,-0.08494520230000002,0.02751745990000032,0.0033597588100890835,-0.008399397025222716,0.022296581194227564
9.914818048477173,0.04546362940000004,-0.05862415369999996,-0.0011964113000004772,-0.0010690141668465297,0.0001527163095495082,0.014966198335851378
9.919283866882324,0.04546362940000004,-0.05862415369999996,-0.0011964113000004772,-0.0010690141668465297,0.0001527163095495082,0.014966198335851378
9.923927068710327,-0.0023928225999999553,-0.06580262149999994,-0.03469592769999963,0.001832595714594043,-0.0009162978572970215,-0.0009162978572970215
9.928560256958008,-0.0023928225999999553,-0.06580262149999994,-0.03469592769999963,0.001832595714594043,-0.0009162978572970215,-0.0009162978572970215
9.933006048202515,-0.16630117069999995,-0.017946169499999942,-0.04785645199999777,-0.0003054326190990095,0.0021380283336930456,-0.009162978572970229
9.937494277954102,-0.16630117069999995,-0.017946169499999942,-0.04785645199999777,-0.0003054326190990095,0.0021380283336930456,-0.009162978572970229
9.942079782485962,-0.16630117069999995,0.05383850849999994,-0.011964112999997667,-0.004123340357836607,0.0010690141668465297,-0.0058032197628811455
9.947225332260132,-0.14237294469999995,0.05383850849999994,-0.011964112999997667,-0.004123340357836607,0.0010690141668465297,-0.0058032197628811455
9.95221471786499,-0.14237294469999995,0.05383850849999994,0.005982056500002386,-0.006872233929727675,0.0032070425005395753,0.0003054326190990095
9.957231760025024,-0.08733802489999998,0.13878371079999996,0.005982056500002386,-0.006872233929727675,0.0032070425005395753,0.0003054326190990095
9.962174654006958,-0.08733802489999998,0.13878371079999996,-0.023928225999998887,-0.008704829644321722,0.008399397025222716,0.0019853120241435512
9.967146635055542,-0.07537391189999998,0.2009970983999999,-0.023928225999998887,-0.008704829644321722,0.008399397025222716,0.0019853120241435512
9.972048044204712,-0.07537391189999998,0.2009970983999999,0.014356935599998621,-0.00519235452468313,0.004886921905584124,0.000610865238198019
9.977095127105713,-0.10528419439999992,0.23210379219999988,0.014356935599998621,-0.00519235452468313,0.004886921905584124,0.000610865238198019
9.981911897659302,-0.10528419439999992,0.23210379219999988,0.014356935599998621,-0.0022907446432425607,0.003054326190990067,0.0010690141668465297
9.986804246902466,-0.13160524299999993,0.19022939669999994,0.00837487910000334,-0.0022907446432425607,0.003054326190990067,0.0010690141668465297
9.991788864135742,-0.13160524299999993,0.19022939669999994,0.00837487910000334,-0.000610865238198019,0.0029016098814405727,0.0048869219055841275
9.996708393096924,-0.10528419439999992,0.1639083481,0.03349951639999915,-0.000610865238198019,0.0029016098814405727,0.0048869219055841275
10.001663208007812,-0.10528419439999992,0.1639083481,0.03349951639999915,0.0010690141668465297,0.003054326190990067,0.004581489286485118
10.006625652313232,-0.10169496049999993,0.10289137180000008,0.0,0.0010690141668465297,0.003054326190990067,0.004581489286485118
10.011575698852539,-0.10169496049999993,0.10289137180000008,0.0,0.001221730476396024,0.0039706240482871025,0.004123340357836604
10.01654863357544,-0.07896314579999997,0.07417750059999995,0.03828516160000106,0.001221730476396024,0.0039706240482871025,0.004123340357836604
10.02144455909729,-0.07896314579999997,0.07417750059999995,0.03828516160000106,-0.000610865238198019,0.006414085001079151,0.005650503453331644
10.026792764663696,-0.05383850849999994,0.005982056499999944,-0.016749758199999576,-0.000610865238198019,0.006414085001079151,0.005650503453331644
10.03199577331543,-0.05383850849999994,0.005982056499999944,0.01196411300000122,-0.0019853120241435512,0.0076358154774751885,0.0029016098814405797
10.036851406097412,-0.05982056499999994,-0.009571290400000043,0.01196411300000122,-0.0019853120241435512,0.0076358154774751885,0.0029016098814405797
10.04201602935791,-0.05982056499999994,-0.009571290400000043,-0.05982056499999899,0.0019853120241435443,-0.0032070425005395753,-0.0035124751196385848
10.046976089477539,-0.10648060569999995,0.005982056499999944,-0.05982056499999899,0.0019853120241435443,-0.0032070425005395753,-0.0035124751196385848
10.051836252212524,-0.10648060569999995,0.005982056499999944,-0.031106693799998197,-0.000610865238198019,-0.003054326190990081,-0.0027488935718910645
10.056774377822876,-0.10408778309999994,0.06340979889999998,-0.031106693799998197,-0.000610865238198019,-0.003054326190990081,-0.0027488935718910645
10.061591148376465,-0.10408778309999994,0.06340979889999998,-0.031106693799998197,-0.0032070425005395788,0.0016798794050445487,0.00045814892864851076
10.066115617752075,-0.08015955709999995,0.13040883170000006,0.025124637300002917,-0.0032070425005395788,0.0016798794050445487,0.00045814892864851076
10.070576190948486,-0.08015955709999995,0.13040883170000006,0.025124637300002917,-0.0032070425005395788,0.0016798794050445487,0.00045814892864851076
10.075114011764526,-0.09571290399999993,0.14356935599999998,0.07058826669999974,-0.0032070425005395788,-0.0007635815477475272,-0.0007635815477475133
10.080064058303833,-0.09571290399999993,0.14356935599999998,0.07058826669999974,-0.0032070425005395788,-0.0007635815477475272,-0.0007635815477475133
12.086248397827148,-0.01316052429999992,0.03708875029999992,-0.3122633493000002,0.014660765716752365,0.038789942625573975,-0.09957103382627651
12.090944528579712,0.09690931530000002,-0.28354947810000003,-0.11724830739999703,0.004886921905584124,0.018478673455489966,-0.10903944501834574
12.095511674880981,0.09690931530000002,-0.28354947810000003,-0.11724830739999703,0.004886921905584124,0.018478673455489966,-0.10903944501834574
12.100123405456543,-0.049052863299999916,0.981057266,0.14356935600000043,0.006719517620178167,-0.010842857978014778,-0.11117747335203877
12.104787111282349,-0.049052863299999916,0.981057266,0.14356935600000043,0.006719517620178167,-0.010842857978014778,-0.11117747335203877
12.109787702560425,-0.35892338999999995,-0.7836494015,1.1054840412000004,0.05497787143782138,0.025961772623415647,-0.09254608358699933
12.114403247833252,-0.35892338999999995,-0.7836494015,1.1054840412000004,0.05497787143782138,0.025961772623415647,-0.09254608358699933
12.119022846221924,-0.05503491979999997,0.10289137180000008,-0.6269195211999978,0.004886921905584124,0.047342055960346185,-0.08918632477691023
12.123647212982178,-0.05503491979999997,0.10289137180000008,-0.6269195211999978,0.004886921905584124,0.047342055960346185,-0.08918632477691023
12.128337383270264,-0.05503491979999997,0.10289137180000008,-0.6269195211999978,0.02199114857512855,0.06750060882088069,-0.07009678608322226
12.133057117462158,-0.1986042757999999,1.1341979124,0.20099709840000202,0.02199114857512855,0.06750060882088069,-0.07009678608322226
12.138144254684448,-0.1986042757999999,1.1341979124,0.20099709840000202,0.03894265893512348,0.04108068726881653,-0.05910121179565797
12.143049478530884,0.1639083481000001,-0.4474578262,0.20099709840000202,0.03894265893512348,0.04108068726881653,-0.05910121179565797
12.147663831710815,0.1639083481000001,-0.4474578262,0.20099709840000202,0.03894265893512348,0.04108068726881653,-0.07849618310844496
12.152371406555176,0.24167508260000004,0.6077769404000001,0.2404786713,-0.012980886311707827,0.02993239667170275,-0.07849618310844496
12.15924596786499,-0.5587240770999999,-0.8063812162,0.37088750299999873,0.05894849548610848,0.012522737383059312,-0.07925976465619249
12.164923429489136,-0.5587240770999999,-0.8063812162,0.37088750299999873,0.05894849548610848,0.012522737383059312,-0.07925976465619249
12.170370817184448,0.6053841178000001,0.09332008140000003,0.07537391190000164,-0.015729779883598895,0.059101211795657985,-0.09697485656393494
12.175017595291138,0.6053841178000001,0.09332008140000003,0.07537391190000164,-0.015729779883598895,0.059101211795657985,-0.09697485656393494
12.17943024635315,-0.8985048862999999,0.6029912951999999,0.6687939167000039,0.04673119072214817,0.048869219055841226,-0.07269296334556383
12.183778047561646,-0.8985048862999999,0.6029912951999999,0.6687939167000039,0.04673119072214817,0.048869219055841226,-0.07269296334556383
12.188187599182129,-0.8985048862999999,0.6029912951999999,0.6687939167000039,-0.006566801310628666,0.06643159465403417,-0.07070765132142026
12.192661762237549,0.6855436749000001,-0.07298108930000002,0.6795616184000011,-0.006566801310628666,0.06643159465403417,-0.07070765132142026
12.19720721244812,0.6855436749000001,-0.07298108930000002,0.6795616184000011,-0.006566801310628666,0.06643159465403417,-0.07070765132142026
12.201632976531982,-0.3278166962,-0.3038884702,-0.4283152454000003,0.05940664441475698,0.05467243881872237,-0.08246680715673206
12.206076622009277,-0.3278166962,-0.3038884702,-0.4283152454000003,0.05940664441475698,0.05467243881872237,-0.08246680715673206
12.211742877960205,0.5527420206,0.26201407470000004,0.059820565000002546,-0.021991148575128554,0.09819658704033096,-0.08552113334772214
12.216210842132568,0.5527420206,0.26201407470000004,0.059820565000002546,-0.021991148575128554,0.09819658704033096,-0.08552113334772214
12.220648288726807,-0.42472601149999994,-0.38763726119999997,0.09690931530000313,0.0435241482216086,0.02535090738521764,-0.07086036763096977
12.225065231323242,-0.42472601149999994,-0.38763726119999997,0.09690931530000313,0.0435241482216086,0.02535090738521764,-0.07086036763096977
12.229887962341309,0.4295116567,0.8171489178999999,-0.5551348432000012,0.0039706240482870955,-0.01924225500323748,-0.07009678608322226
12.234405994415283,0.4295116567,0.8171489178999999,-0.5551348432000012,0.0039706240482870955,-0.01924225500323748,-0.07009678608322226
12.23881196975708,0.05024927460000006,-0.6652046828,0.040677984200002015,0.024434609527920613,-0.001832595714594057,-0.04612032548395016
12.243223667144775,0.05024927460000006,-0.6652046828,0.040677984200002015,0.024434609527920613,-0.001832595714594057,-0.04612032548395016
12.247686386108398,0.05024927460000006,-0.6652046828,0.040677984200002015,-0.0277943683380097,0.016340645121796907,-0.04627304179349967
12.252464056015015,0.46181476180000014,0.6017948838999999,-0.8997012975999965,-0.0277943683380097,0.016340645121796907,-0.04627304179349967
12.256879806518555,0.46181476180000014,0.6017948838999999,-0.8997012975999965,-0.0277943683380097,0.004276056667386105,-0.037262779530078935
12.2621009349823,-0.3014956475999999,-0.6005984726,0.8003991596999995,0.03985895679242051,0.004276056667386105,-0.037262779530078935
12.266848802566528,-0.3014956475999999,-0.6005984726,0.8003991596999995,0.03985895679242051,0.004276056667386105,-0.037262779530078935
14.274160623550415,0.18664016280000006,0.42233318890000004,0.4007977855,0.013591751549905842,0.033444871791341334,-0.017104226669544427
14.279017925262451,0.7046862557,-0.5898307709,-0.19022939669999772,0.0025961772623415633,0.033444871791341334,-0.017104226669544427
14.283955335617065,0.7046862557,-0.5898307709,-0.19022939669999772,0.0025961772623415633,0.033444871791341334,-0.056963183461964925
14.288703918457031,0.4630111731000002,-0.1244267752,-0.44865423750000133,0.0009162978572970215,-0.011453723216212783,-0.056963183461964925
14.293354988098145,0.4630111731000002,-0.1244267752,-0.44865423750000133,0.0009162978572970215,-0.011453723216212783,-0.056963183461964925
14.298085689544678,0.03828516160000006,-0.9008977089,0.08015955710000355,0.015271630954950384,-0.0476474885794452,-0.07284567965511334
14.3027982711792,0.03828516160000006,-0.9008977089,0.08015955710000355,0.015271630954950384,-0.0476474885794452,-0.07284567965511334
14.30750060081482,0.4737788748,0.6293123438,-0.17347963849999815,-0.024740042147019622,-0.030695978219450276,-0.06368270108214309
14.31190276145935,0.4737788748,0.6293123438,-0.17347963849999815,-0.024740042147019622,-0.030695978219450276,-0.06368270108214309
14.316315412521362,-0.10289137179999996,-0.3984049629,0.8650053699000004,0.016187928812247405,-0.013133602621257331,-0.029474247743054238
14.320677995681763,-0.10289137179999996,-0.3984049629,0.8650053699000004,0.016187928812247405,-0.013133602621257331,-0.029474247743054238
14.325419425964355,-0.15672988029999996,-1.0923235169,-0.34695927699999984,0.006261368691529656,0.0022907446432425538,-0.03649919798233141
