timestamp,accX,accY,accZ,gyroX,gyroY,gyroZ
0.000077,0.549153,0.780060,-9.546166,0.035125,-0.089492,-0.034819
0.005469,0.549153,0.780060,-9.546166,0.035125,-0.089492,-0.034819
0.009635,0.549153,0.780060,-9.546166,0.034056,-0.090866,-0.036194
0.013728,0.530010,0.771685,-9.533005,0.034056,-0.090866,-0.036194
0.017821,0.530010,0.771685,-9.533005,0.034056,-0.090866,-0.036194
0.021969,0.544367,0.754936,-9.579665,0.036346,-0.089950,-0.040164
0.026138,0.544367,0.754936,-9.579665,0.036346,-0.089950,-0.040164
0.030276,0.577867,0.746561,-9.530612,0.035277,-0.087506,-0.041081
0.034384,0.577867,0.746561,-9.530612,0.035277,-0.087506,-0.041081
0.038450,0.577867,0.746561,-9.530612,0.035277,-0.087506,-0.041081
0.042618,0.567099,0.741775,-9.572487,0.034819,-0.092852,-0.040623
0.046739,0.567099,0.741775,-9.572487,0.034819,-0.092852,-0.040623
0.050863,0.551546,0.729811,-9.516255,0.033139,-0.089492,-0.040012
0.055183,0.551546,0.729811,-9.516255,0.033139,-0.089492,-0.040012
0.059342,0.551546,0.729811,-9.516255,0.038026,-0.097891,-0.038637
0.063591,0.543171,0.702293,-9.528220,0.038026,-0.097891,-0.038637
0.067678,0.543171,0.702293,-9.528220,0.038026,-0.097891,-0.038637
0.071755,0.579063,0.754936,-9.579665,0.037721,-0.098960,-0.037110
0.075820,0.579063,0.754936,-9.579665,0.037721,-0.098960,-0.037110
0.079917,0.579063,0.729811,-9.536594,0.031307,-0.088270,-0.033292
0.084080,0.553938,0.729811,-9.536594,0.031307,-0.088270,-0.033292
0.088160,0.553938,0.729811,-9.536594,0.031307,-0.088270,-0.033292
0.092292,0.552742,0.754936,-9.565308,0.033292,-0.091172,-0.033292
0.096400,0.552742,0.754936,-9.565308,0.033292,-0.091172,-0.033292
0.100474,0.557528,0.754936,-9.523434,0.034972,-0.093768,-0.035430
0.104784,0.557528,0.754936,-9.523434,0.034972,-0.093768,-0.035430
0.108885,0.557528,0.754936,-9.523434,0.034972,-0.093768,-0.037415
0.113014,0.544367,0.768096,-9.468399,0.035736,-0.095142,-0.037415
0.117080,0.544367,0.768096,-9.468399,0.035736,-0.095142,-0.037415
0.121151,0.518046,0.780060,-9.541380,0.032834,-0.087659,-0.034056
0.125331,0.518046,0.780060,-9.541380,0.032834,-0.087659,-0.034056
0.129396,0.518046,0.780060,-9.541380,0.035583,-0.092546,-0.033445
0.133448,0.538385,0.780060,-9.500702,0.035583,-0.092546,-0.033445
0.137567,0.538385,0.780060,-9.500702,0.035583,-0.092546,-0.033445
0.141637,0.568295,0.756132,-9.501899,0.034208,-0.092088,-0.032681
0.145795,0.568295,0.756132,-9.501899,0.034208,-0.092088,-0.032681
0.149895,0.568295,0.774078,-9.555737,0.037721,-0.094226,-0.037263
0.154086,0.540778,0.774078,-9.555737,0.037721,-0.094226,-0.037263
0.158287,0.540778,0.774078,-9.555737,0.037721,-0.094226,-0.037263
0.162375,0.531207,0.764507,-9.583255,0.033292,-0.089492,-0.036652
0.166584,0.531207,0.764507,-9.583255,0.033292,-0.089492,-0.036652
0.171863,0.538385,0.753739,-9.527023,0.038026,-0.096059,-0.038179
0.178439,0.538385,0.753739,-9.527023,0.038026,-0.090103,-0.036194
0.183819,0.557528,0.787239,-9.549755,0.034667,-0.090103,-0.036194
0.190015,0.591027,0.762114,-9.535398,0.036805,-0.093004,-0.036499
0.195090,0.591027,0.762114,-9.535398,0.036805,-0.093004,-0.036499
0.200233,0.544367,0.727418,-9.570094,0.035583,-0.097128,-0.034361
0.205015,0.544367,0.727418,-9.570094,0.035583,-0.097128,-0.034361
0.209219,0.544367,0.727418,-9.570094,0.035736,-0.094990,-0.033598
0.213291,0.559920,0.744168,-9.564112,0.035736,-0.094990,-0.033598
0.217348,0.559920,0.744168,-9.564112,0.035736,-0.094990,-0.033598
0.221412,0.556331,0.728614,-9.529416,0.034056,-0.094837,-0.031460
0.225615,0.556331,0.728614,-9.529416,0.034056,-0.094837,-0.031460
0.229755,0.556331,0.754936,-9.552148,0.035888,-0.095295,-0.034514
0.233816,0.575474,0.754936,-9.552148,0.035888,-0.095295,-0.034514
0.237875,0.575474,0.754936,-9.552148,0.035888,-0.095295,-0.034514
0.241935,0.555135,0.788435,-9.565308,0.031001,-0.087506,-0.033903
0.246088,0.555135,0.788435,-9.565308,0.031001,-0.087506,-0.033903
0.250271,0.589831,0.754936,-9.521041,0.034056,-0.088881,-0.038332
0.254899,0.589831,0.754936,-9.521041,0.034056,-0.088881,-0.038332
0.259146,0.589831,0.754936,-9.521041,0.036346,-0.091019,-0.041233
0.263219,0.547956,0.764507,-9.524630,0.036346,-0.091019,-0.041233
0.267445,0.547956,0.764507,-9.524630,0.036346,-0.091019,-0.041233
0.271557,0.519243,0.748953,-9.570094,0.033139,-0.087965,-0.036346
0.275644,0.519243,0.748953,-9.570094,0.033139,-0.087965,-0.036346
0.279716,0.553938,0.754936,-9.512666,0.032070,-0.087965,-0.032834
0.283768,0.553938,0.754936,-9.512666,0.032070,-0.087965,-0.032834
0.288075,0.553938,0.754936,-9.512666,0.032070,-0.087965,-0.032834
0.292168,0.568295,0.776471,-9.536594,0.032529,-0.088270,-0.033292
0.296261,0.568295,0.776471,-9.536594,0.032529,-0.088270,-0.033292
0.300339,0.589831,0.770489,-9.529416,0.036499,-0.092852,-0.037568
0.304494,0.589831,0.770489,-9.529416,0.036499,-0.092852,-0.037568
0.308831,0.589831,0.770489,-9.529416,0.031918,-0.087201,-0.034056
0.312926,0.574277,0.742971,-9.518648,0.031918,-0.087201,-0.034056
0.317003,0.574277,0.742971,-9.518648,0.031918,-0.087201,-0.034056
0.321074,0.549153,0.757328,-9.570094,0.036652,-0.093310,-0.040470
0.325128,0.549153,0.757328,-9.570094,0.036652,-0.093310,-0.040470
0.329309,0.549153,0.757328,-9.570094,0.035583,-0.089950,-0.041081
0.333413,0.532403,0.740579,-9.544969,0.035583,-0.089950,-0.041081
0.337469,0.532403,0.740579,-9.544969,0.035583,-0.089950,-0.041081
0.341544,0.546760,0.794417,-9.552148,0.041539,-0.095906,-0.046426
0.345665,0.546760,0.794417,-9.552148,0.041539,-0.095906,-0.046426
0.349825,0.543171,0.771685,-9.560523,0.037874,-0.095448,-0.047342
0.353942,0.543171,0.771685,-9.560523,0.037874,-0.095448,-0.047342
0.358295,0.543171,0.771685,-9.560523,0.037874,-0.095448,-0.047342
0.362396,0.579063,0.719043,-9.547362,0.041386,-0.098655,-0.045357
0.366544,0.579063,0.719043,-9.547362,0.041386,-0.098655,-0.045357
0.370702,0.539581,0.754936,-9.525827,0.032834,-0.084452,-0.034972
0.374762,0.539581,0.754936,-9.525827,0.032834,-0.084452,-0.034972
0.378823,0.539581,0.754936,-9.525827,0.032987,-0.085674,-0.033292
0.383192,0.579063,0.769292,-9.512666,0.032987,-0.085674,-0.033292
0.387342,0.579063,0.769292,-9.512666,0.032987,-0.085674,-0.033292
0.391446,0.616152,0.752543,-9.578469,0.032223,-0.088423,-0.033139
0.395576,0.616152,0.752543,-9.578469,0.032223,-0.088423,-0.033139
0.399654,0.563510,0.740579,-9.578469,0.039095,-0.097738,-0.037721
0.403738,0.563510,0.740579,-9.578469,0.039095,-0.097738,-0.037721
0.408299,0.563510,0.740579,-9.578469,0.039095,-0.097738,-0.035583
0.412423,0.552742,0.720240,-9.550951,0.034514,-0.090713,-0.035583
0.416530,0.552742,0.720240,-9.550951,0.034514,-0.090713,-0.035583
0.420603,0.561117,0.734597,-9.554541,0.035277,-0.091783,-0.037568
0.424668,0.561117,0.734597,-9.554541,0.035277,-0.091783,-0.037568
0.428901,0.561117,0.734597,-9.554541,0.036041,-0.093768,-0.037874
0.432980,0.540778,0.740579,-9.573683,0.036041,-0.093768,-0.037874
0.437081,0.540778,0.740579,-9.573683,0.036041,-0.093768,-0.037874
0.441143,0.553938,0.754936,-9.517452,0.034972,-0.090713,-0.034208
0.445192,0.553938,0.754936,-9.517452,0.034972,-0.090713,-0.034208
0.449363,0.553938,0.777667,-9.501899,0.037263,-0.099113,-0.035430
0.453423,0.532403,0.777667,-9.501899,0.037263,-0.099113,-0.035430
0.457755,0.532403,0.777667,-9.501899,0.037263,-0.099113,-0.035430
0.461836,0.568295,0.777667,-9.574880,0.035430,-0.096364,-0.033598
0.465901,0.568295,0.777667,-9.574880,0.035430,-0.096364,-0.033598
0.470104,0.558724,0.770489,-9.519845,0.032223,-0.087812,-0.031612
0.474197,0.558724,0.770489,-9.519845,0.032223,-0.087812,-0.031612
0.478263,0.558724,0.770489,-9.519845,0.032223,-0.087812,-0.036805
0.482324,0.559920,0.765703,-9.566505,0.036346,-0.093615,-0.036805
0.486394,0.559920,0.765703,-9.566505,0.036346,-0.093615,-0.036805
0.490563,0.576670,0.783649,-9.531809,0.034819,-0.092088,-0.036041
0.494664,0.576670,0.783649,-9.531809,0.034819,-0.092088,-0.036041
0.498718,0.576670,0.783649,-9.531809,0.033903,-0.088728,-0.034667
0.502764,0.591027,0.760918,-9.567701,0.033903,-0.088728,-0.034667
0.507656,0.591027,0.760918,-9.567701,0.033903,-0.088728,-0.034667
0.511901,0.567099,0.759721,-9.546166,0.035430,-0.091324,-0.035888
0.515966,0.567099,0.759721,-9.546166,0.035430,-0.091324,-0.035888
0.520047,0.549153,0.748953,-9.546166,0.038179,-0.098960,-0.037874
0.524360,0.549153,0.748953,-9.546166,0.038179,-0.098960,-0.037874
0.528471,0.549153,0.748953,-9.546166,0.031460,-0.089492,-0.032681
0.532630,0.543171,0.726222,-9.543773,0.031460,-0.089492,-0.032681
0.536745,0.543171,0.726222,-9.543773,0.031460,-0.089492,-0.032681
0.541013,0.539581,0.742971,-9.571290,0.034056,-0.091324,-0.032987
0.545465,0.539581,0.742971,-9.571290,0.034056,-0.091324,-0.032987
0.549842,0.564706,0.748953,-9.588040,0.036805,-0.097586,-0.036805
0.554026,0.564706,0.748953,-9.588040,0.036805,-0.097586,-0.036805
0.561781,0.562313,0.787239,-9.531809,0.032529,-0.091324,-0.034208
0.571167,0.539581,0.681954,-9.377472,0.030543,-0.085674,-0.031001
0.580388,0.581456,0.736989,-9.570094,0.038332,-0.099266,-0.035888
0.589539,0.571885,0.754936,-9.436096,0.035277,-0.096517,-0.034972
0.598728,0.547956,0.838684,-9.608379,0.036194,-0.099113,-0.033750
0.608999,0.544367,0.783649,-9.376275,0.029780,-0.085216,-0.027489
0.618965,0.540778,0.811167,-9.492327,0.031765,-0.089492,-0.029932
0.628130,0.540778,0.811167,-9.400204,0.033292,-0.091324,-0.033598
0.637403,0.565903,0.754936,-9.400204,0.029780,-0.083994,-0.029932
0.646534,0.498904,0.823131,-9.373883,0.029780,-0.096211,-0.035888
0.656748,0.559920,0.722632,-9.565308,0.032070,-0.087048,-0.033445
0.664924,0.567099,0.820738,-9.595219,0.032070,-0.087048,-0.033445
0.672523,0.561117,0.805185,-9.566505,0.036499,-0.095600,-0.039248
0.680087,0.553938,0.784846,-9.548559,0.037568,-0.096364,-0.041844
0.687536,0.553938,0.784846,-9.548559,0.035583,-0.093462,-0.037415
0.695127,0.569492,0.800399,-9.511470,0.035583,-0.093462,-0.037415
0.702637,0.553938,0.777667,-9.546166,0.037110,-0.095600,-0.035736
0.710292,0.592224,0.770489,-9.519845,0.030391,-0.089950,-0.031612
0.717998,0.592224,0.770489,-9.519845,0.033598,-0.094531,-0.031612
0.725442,0.544367,0.760918,-9.500702,0.033598,-0.094531,-0.031612
0.732986,0.532403,0.769292,-9.572487,0.037721,-0.101098,-0.031612
0.740503,0.568295,0.757328,-9.522238,0.038485,-0.097433,-0.034361
0.747940,0.568295,0.757328,-9.522238,0.039248,-0.098655,-0.038485
0.755430,0.538385,0.764507,-9.537791,0.039248,-0.098655,-0.039859
0.764555,0.557528,0.765703,-9.519845,0.034208,-0.088575,-0.039859
0.772840,0.563510,0.765703,-9.529416,0.033598,-0.081245,-0.041844
0.781279,0.571885,0.775275,-9.554541,0.029474,-0.076969,-0.040928
0.789542,0.585045,0.774078,-9.538987,0.036346,-0.085063,-0.044135
0.797878,0.585045,0.774078,-9.570094,0.035583,-0.089034,-0.041233
0.806133,0.567099,0.776471,-9.570094,0.035583,-0.089034,-0.037263
0.814672,0.574277,0.757328,-9.558130,0.035430,-0.089186,-0.037263
0.822989,0.558724,0.777667,-9.538987,0.038637,-0.094379,-0.036957
0.831232,0.545564,0.758525,-9.499506,0.033292,-0.087201,-0.034056
0.839746,0.561117,0.748953,-9.535398,0.036346,-0.094226,-0.037874
0.848419,0.544367,0.747757,-9.582058,0.030238,-0.084758,-0.034208
0.856879,0.544367,0.747757,-9.582058,0.032376,-0.086896,-0.037110
0.865462,0.558724,0.740579,-9.571290,0.032376,-0.086896,-0.037110
0.873734,0.551546,0.723829,-9.567701,0.035736,-0.087354,-0.041539
0.882052,0.561117,0.754936,-9.568898,0.038179,-0.091324,-0.043066
0.890258,0.541974,0.726222,-9.548559,0.038332,-0.094684,-0.044135
0.898515,0.556331,0.757328,-9.536594,0.032834,-0.087659,-0.040928
0.906841,0.556331,0.757328,-9.536594,0.033292,-0.087659,-0.038485
0.915332,0.556331,0.750150,-9.530612,0.033292,-0.087659,-0.038485
0.923671,0.552742,0.756132,-9.536594,0.031460,-0.084147,-0.033903
0.931864,0.562313,0.750150,-9.597611,0.032987,-0.087812,-0.033292
0.940161,0.580259,0.740579,-9.570094,0.034208,-0.093157,-0.031612
0.948397,0.547956,0.766900,-9.524630,0.033445,-0.091630,-0.033750
0.956653,0.547956,0.766900,-9.524630,0.034208,-0.092088,-0.036805
0.965147,0.549153,0.760918,-9.560523,0.034208,-0.092088,-0.036805
0.973346,0.573081,0.758525,-9.503095,0.035125,-0.093310,-0.036499
0.981709,0.577867,0.832702,-9.537791,0.034667,-0.091630,-0.035277
0.989895,0.595813,0.771685,-9.529416,0.034667,-0.090103,-0.034819
0.998114,0.595813,0.781257,-9.543773,0.038485,-0.097128,-0.040470
1.006356,0.570688,0.781257,-9.543773,0.035125,-0.089492,-0.035430
1.015426,0.559920,0.776471,-9.533005,0.035125,-0.089492,-0.035430
1.023753,0.573081,0.742971,-9.570094,0.034819,-0.086743,-0.033598
1.031932,0.543171,0.750150,-9.537791,0.037110,-0.097738,-0.037263
1.040178,0.538385,0.733400,-9.580862,0.036346,-0.096364,-0.032987
1.048410,0.573081,0.746561,-9.522238,0.031460,-0.090713,-0.031154
1.056582,0.573081,0.746561,-9.522238,0.033598,-0.093921,-0.031154
1.065089,0.565903,0.716650,-9.559326,0.033598,-0.093921,-0.031154
1.073386,0.570688,0.741775,-9.543773,0.034208,-0.091935,-0.031918
1.081639,0.555135,0.753739,-9.519845,0.039248,-0.100487,-0.035736
1.089878,0.530010,0.752543,-9.542577,0.038026,-0.099418,-0.037110
1.098045,0.546760,0.777667,-9.533005,0.036346,-0.095142,-0.034208
1.106345,0.546760,0.777667,-9.533005,0.034819,-0.091783,-0.034361
1.114898,0.577867,0.764507,-9.547362,0.034819,-0.091783,-0.034361
1.123253,0.581456,0.780060,-9.498309,0.033598,-0.090103,-0.035125
1.131499,0.559920,0.789631,-9.489934,0.031612,-0.084147,-0.034819
1.139662,0.558724,0.751346,-9.538987,0.026725,-0.074678,-0.033750
1.147966,0.550349,0.789631,-9.553344,0.030085,-0.081856,-0.034819
1.156130,0.550349,0.789631,-9.553344,0.030085,-0.081856,-0.034056
1.164510,0.565903,0.769292,-9.565308,0.030085,-0.081856,-0.034056
1.173127,0.556331,0.742971,-9.579665,0.032681,-0.085521,-0.034972
1.183241,0.568295,0.756132,-9.524630,0.031307,-0.085368,-0.034514
1.192018,0.559920,0.720240,-9.513863,0.031765,-0.087201,-0.033903
1.200237,0.574277,0.722632,-9.573683,0.038332,-0.097891,-0.037110
1.208671,0.561117,0.721436,-9.573683,0.028711,-0.082925,-0.031154
1.217215,0.561117,0.721436,-9.519845,0.032529,-0.090408,-0.033598
1.225504,0.559920,0.746561,-9.519845,0.032529,-0.088423,-0.031765
1.233809,0.532403,0.759721,-9.528220,0.031001,-0.088423,-0.031765
1.242077,0.541974,0.787239,-9.537791,0.035736,-0.094837,-0.033445
1.250448,0.569492,0.778864,-9.533005,0.030085,-0.084452,-0.030238
1.258718,0.555135,0.768096,-9.537791,0.031765,-0.089186,-0.033903
1.266952,0.555135,0.768096,-9.537791,0.036499,-0.095906,-0.034667
1.274594,0.561117,0.764507,-9.541380,0.036499,-0.095906,-0.034667
1.282041,0.558724,0.781257,-9.580862,0.032376,-0.088117,-0.031765
1.289592,0.581456,0.740579,-9.572487,0.033139,-0.092393,-0.033139
1.297191,0.581456,0.740579,-9.536594,0.038637,-0.099266,-0.038332
1.304683,0.530010,0.746561,-9.536594,0.038637,-0.099266,-0.038332
1.312273,0.555135,0.768096,-9.540184,0.034056,-0.087201,-0.036194
1.319975,0.559920,0.780060,-9.535398,0.029474,-0.077427,-0.034208
1.327488,0.559920,0.763310,-9.554541,0.031765,-0.084605,-0.036499
1.334959,0.574277,0.763310,-9.554541,0.031765,-0.084605,-0.036499
1.342401,0.579063,0.771685,-9.558130,0.035583,-0.091019,-0.038026
1.349947,0.576670,0.744168,-9.591629,0.030849,-0.085368,-0.032987
1.357366,0.576670,0.738186,-9.515059,0.035736,-0.093157,-0.032834
1.365369,0.555135,0.738186,-9.515059,0.035736,-0.089644,-0.028863
1.373718,0.577867,0.741775,-9.529416,0.031460,-0.089644,-0.028863
1.381883,0.558724,0.740579,-9.578469,0.032529,-0.092088,-0.029932
1.390272,0.557528,0.751346,-9.589237,0.033292,-0.092241,-0.033292
1.398440,0.552742,0.756132,-9.580862,0.032223,-0.088117,-0.033445
1.407244,0.552742,0.784846,-9.518648,0.029780,-0.084605,-0.034208
1.415687,0.559920,0.784846,-9.518648,0.029780,-0.081856,-0.035430
1.423985,0.518046,0.776471,-9.515059,0.029780,-0.081856,-0.035430
1.432332,0.550349,0.793221,-9.562916,0.031001,-0.083536,-0.031765
1.441039,0.577867,0.772882,-9.528220,0.031765,-0.084758,-0.031154
1.449924,0.545564,0.769292,-9.531809,0.034667,-0.091324,-0.031612
1.458189,0.556331,0.742971,-9.550951,0.035430,-0.094073,-0.031612
1.466542,0.556331,0.742971,-9.550951,0.036499,-0.097433,-0.032834
1.474129,0.573081,0.738186,-9.513863,0.036499,-0.097433,-0.032834
1.481553,0.553938,0.738186,-9.544969,0.040470,-0.101709,-0.035277
1.489012,0.574277,0.756132,-9.589237,0.037263,-0.094990,-0.033750
1.496478,0.574277,0.756132,-9.589237,0.035430,-0.091783,-0.034514
1.503887,0.544367,0.756132,-9.556933,0.035430,-0.091783,-0.034514
1.511399,0.540778,0.745364,-9.509077,0.035736,-0.092699,-0.037415
1.519089,0.568295,0.758525,-9.519845,0.030849,-0.085827,-0.033598
1.526764,0.568295,0.758525,-9.549755,0.036194,-0.091324,-0.035736
1.534334,0.577867,0.770489,-9.549755,0.036194,-0.091324,-0.035736
1.541804,0.544367,0.766900,-9.523434,0.034514,-0.092699,-0.035888
1.549253,0.541974,0.770489,-9.530612,0.036194,-0.095906,-0.034208
1.556741,0.541974,0.770489,-9.558130,0.032681,-0.089644,-0.031765
1.564483,0.573081,0.736989,-9.558130,0.032681,-0.089644,-0.031765
1.572994,0.579063,0.756132,-9.523434,0.038026,-0.096975,-0.037263
1.581324,0.550349,0.763310,-9.534202,0.034361,-0.091477,-0.036194
1.589566,0.569492,0.758525,-9.541380,0.034208,-0.092241,-0.037568
1.597869,0.556331,0.760918,-9.580862,0.035888,-0.091019,-0.039401
1.606030,0.556331,0.760918,-9.580862,0.036499,-0.090103,-0.036499
1.614326,0.553938,0.748953,-9.571290,0.036499,-0.090103,-0.036499
1.622986,0.553938,0.752543,-9.534202,0.038790,-0.096364,-0.038637
1.631296,0.558724,0.717847,-9.536594,0.036041,-0.092699,-0.037263
1.639566,0.561117,0.741775,-9.515059,0.031001,-0.087812,-0.034667
1.647734,0.541974,0.750150,-9.561719,0.032681,-0.091324,-0.035125
1.656032,0.541974,0.750150,-9.561719,0.036346,-0.095906,-0.037110
1.664256,0.555135,0.742971,-9.544969,0.036346,-0.095906,-0.037110
1.672697,0.570688,0.756132,-9.535398,0.034361,-0.096517,-0.037568
1.681034,0.549153,0.783649,-9.567701,0.036194,-0.096211,-0.037415
1.689193,0.534796,0.770489,-9.567701,0.031307,-0.086896,-0.034361
1.697469,0.563510,0.771685,-9.556933,0.032987,-0.088881,-0.035430
1.705648,0.563510,0.771685,-9.556933,0.033445,-0.088575,-0.035583
1.713867,0.552742,0.762114,-9.543773,0.033445,-0.088575,-0.035583
1.722294,0.563510,0.774078,-9.525827,0.037263,-0.092852,-0.038790
1.730455,0.574277,0.760918,-9.555737,0.034514,-0.090103,-0.037110
1.738744,0.537189,0.775275,-9.523434,0.036652,-0.096364,-0.036957
1.749530,0.563510,0.756132,-9.559326,0.034667,-0.092241,-0.034208
1.757940,0.561117,0.760918,-9.531809,0.036194,-0.098655,-0.034208
1.766309,0.561117,0.760918,-9.550951,0.036957,-0.097280,-0.032376
1.774966,0.520439,0.752543,-9.550951,0.036041,-0.097433,-0.032987
1.783341,0.571885,0.734597,-9.531809,0.036041,-0.097433,-0.032987
1.791563,0.547956,0.751346,-9.574880,0.030391,-0.086590,-0.029474
1.800856,0.540778,0.754936,-9.573683,0.032987,-0.090561,-0.031307
1.809209,0.530010,0.753739,-9.541380,0.034819,-0.098349,-0.031765
1.817719,0.576670,0.756132,-9.577272,0.036041,-0.095753,-0.031154
1.826100,0.576670,0.756132,-9.556933,0.028405,-0.083078,-0.027336
1.834358,0.541974,0.772882,-9.556933,0.028405,-0.083078,-0.030391
1.842725,0.516850,0.753739,-9.527023,0.031307,-0.090713,-0.030391
1.851028,0.577867,0.757328,-9.586844,0.034819,-0.095600,-0.031154
1.859392,0.553938,0.759721,-9.570094,0.031612,-0.087354,-0.031154
1.867995,0.558724,0.765703,-9.559326,0.035277,-0.092088,-0.035583
1.876496,0.558724,0.754936,-9.524630,0.032529,-0.086285,-0.034361
1.884849,0.555135,0.754936,-9.524630,0.034361,-0.089644,-0.038790
1.893091,0.567099,0.780060,-9.559326,0.034361,-0.089644,-0.038790
1.901603,0.565903,0.759721,-9.523434,0.030696,-0.086285,-0.034514
1.909972,0.569492,0.768096,-9.506684,0.036194,-0.096517,-0.034667
1.919619,0.547956,0.756132,-9.590433,0.034208,-0.094837,-0.032529
1.927990,0.557528,0.753739,-9.515059,0.037110,-0.097433,-0.032681
1.936184,0.557528,0.775275,-9.542577,0.032681,-0.089034,-0.031001
1.944697,0.543171,0.775275,-9.542577,0.034056,-0.090103,-0.033750
1.952930,0.562313,0.792024,-9.567701,0.034056,-0.090103,-0.033750
1.961883,0.549153,0.765703,-9.521041,0.036194,-0.094990,-0.038332
1.970549,0.551546,0.783649,-9.506684,0.039248,-0.097891,-0.041844
1.978325,0.561117,0.789631,-9.555737,0.034667,-0.088117,-0.034819
1.985868,0.561117,0.789631,-9.555737,0.033139,-0.087506,-0.033292
1.993401,0.589831,0.756132,-9.554541,0.033139,-0.087506,-0.033292
2.000976,0.561117,0.747757,-9.535398,0.038179,-0.097128,-0.037874
2.008577,0.546760,0.727418,-9.513863,0.034056,-0.088881,-0.035583
2.015989,0.546760,0.727418,-9.548559,0.034514,-0.090255,-0.034208
2.024374,0.544367,0.733400,-9.548559,0.034514,-0.090255,-0.039706
2.031821,0.570688,0.727418,-9.553344,0.037874,-0.094379,-0.039706
2.039785,0.552742,0.738186,-9.536594,0.032681,-0.084299,-0.036194
2.047323,0.541974,0.746561,-9.540184,0.032376,-0.083689,-0.039248
2.054755,0.541974,0.746561,-9.540184,0.034819,-0.091172,-0.038485
2.062326,0.564706,0.750150,-9.527023,0.034819,-0.091172,-0.038485
2.070231,0.576670,0.741775,-9.554541,0.033139,-0.091783,-0.035277
2.077825,0.537189,0.769292,-9.517452,0.032681,-0.091630,-0.033139
2.085427,0.537189,0.769292,-9.517452,0.033139,-0.093462,-0.030391
2.092903,0.562313,0.722632,-9.513863,0.033139,-0.093462,-0.030391
2.100390,0.555135,0.745364,-9.542577,0.036957,-0.101404,-0.031001
2.108530,0.558724,0.748953,-9.544969,0.037874,-0.098960,-0.034514
2.116005,0.558724,0.748953,-9.590433,0.039248,-0.102778,-0.036805
2.124468,0.530010,0.760918,-9.590433,0.039248,-0.094379,-0.034056
2.132031,0.568295,0.762114,-9.533005,0.035736,-0.094379,-0.034056
2.139531,0.555135,0.799203,-9.538987,0.033292,-0.091019,-0.034208
2.147686,0.562313,0.776471,-9.493524,0.038026,-0.098807,-0.038943
2.155235,0.562313,0.776471,-9.493524,0.035888,-0.094684,-0.035125
2.162764,0.583849,0.788435,-9.572487,0.035888,-0.094684,-0.035125
2.172010,0.567099,0.757328,-9.535398,0.035888,-0.091324,-0.035583
2.181018,0.541974,0.757328,-9.566505,0.038943,-0.099418,-0.035888
2.189716,0.547956,0.745364,-9.534202,0.033903,-0.091935,-0.031307
2.197295,0.564706,0.741775,-9.541380,0.029169,-0.085063,-0.031001
2.204835,0.564706,0.741775,-9.541380,0.031612,-0.089492,-0.033750
2.212373,0.563510,0.754936,-9.528220,0.031612,-0.089492,-0.033750
2.219887,0.581456,0.751346,-9.562916,0.034819,-0.092393,-0.032376
2.227867,0.538385,0.781257,-9.547362,0.032987,-0.090866,-0.034514
2.235432,0.538385,0.781257,-9.547362,0.034056,-0.090408,-0.036041
2.242880,0.543171,0.772882,-9.531809,0.034056,-0.090408,-0.036041
2.250587,0.561117,0.782453,-9.536594,0.039095,-0.097586,-0.038790
2.258065,0.591027,0.781257,-9.541380,0.038485,-0.095295,-0.040012
2.265606,0.591027,0.781257,-9.522238,0.043371,-0.100640,-0.045815
2.273720,0.577867,0.780060,-9.522238,0.043371,-0.100640,-0.038179
2.281426,0.575474,0.754936,-9.552148,0.031307,-0.083536,-0.038179
2.289407,0.552742,0.748953,-9.562916,0.031612,-0.082925,-0.035583
2.296862,0.558724,0.746561,-9.600004,0.034361,-0.087659,-0.036346
2.304311,0.558724,0.746561,-9.600004,0.032529,-0.086437,-0.034361
2.311977,0.570688,0.747757,-9.544969,0.032529,-0.086437,-0.034361
2.319418,0.559920,0.733400,-9.537791,0.031154,-0.086132,-0.034056
2.328075,0.547956,0.740579,-9.493524,0.040012,-0.102014,-0.039095
2.335626,0.547956,0.740579,-9.534202,0.035583,-0.096059,-0.036346
2.343278,0.555135,0.746561,-9.534202,0.035583,-0.096059,-0.036346
2.351301,0.573081,0.747757,-9.548559,0.036041,-0.095448,-0.035888
2.358774,0.575474,0.772882,-9.507881,0.035736,-0.094837,-0.035736
2.366193,0.550349,0.776471,-9.540184,0.041539,-0.104000,-0.041386
2.373911,0.550349,0.776471,-9.540184,0.037721,-0.096517,-0.036499
2.382178,0.541974,0.790828,-9.564112,0.037721,-0.096517,-0.036499
2.389818,0.563510,0.772882,-9.549755,0.032223,-0.087812,-0.033903
2.397320,0.558724,0.795614,-9.512666,0.042455,-0.102320,-0.042608
2.404786,0.558724,0.795614,-9.512666,0.039248,-0.094990,-0.042150
2.412466,0.538385,0.786042,-9.553344,0.039248,-0.094990,-0.042150
2.419909,0.564706,0.771685,-9.558130,0.036194,-0.091019,-0.038790
2.428438,0.597009,0.753739,-9.556933,0.028558,-0.082009,-0.032376
2.436174,0.565903,0.756132,-9.600004,0.029780,-0.083689,-0.031307
2.443631,0.565903,0.756132,-9.600004,0.029780,-0.083689,-0.034514
2.451205,0.541974,0.731007,-9.519845,0.032834,-0.091935,-0.034514
2.458773,0.561117,0.716650,-9.549755,0.040164,-0.100793,-0.038179
2.466263,0.570688,0.734597,-9.530612,0.040623,-0.101556,-0.041386
2.474286,0.570688,0.734597,-9.530612,0.037721,-0.100029,-0.040470
2.482127,0.540778,0.754936,-9.547362,0.037721,-0.100029,-0.040470
2.490083,0.579063,0.766900,-9.541380,0.037568,-0.098197,-0.037721
2.497662,0.555135,0.770489,-9.515059,0.034208,-0.090561,-0.036346
2.505080,0.555135,0.770489,-9.527023,0.040623,-0.104458,-0.041081
2.512775,0.541974,0.766900,-9.527023,0.040623,-0.104458,-0.041081
2.520259,0.550349,0.752543,-9.548559,0.035430,-0.094990,-0.036957
2.533111,0.568295,0.771685,-9.530612,0.034514,-0.093310,-0.036805
2.540739,0.553938,0.774078,-9.542577,0.035583,-0.093004,-0.036346
2.548253,0.551546,0.753739,-9.536594,0.038943,-0.096669,-0.038179
2.555848,0.540778,0.758525,-9.572487,0.037721,-0.097128,-0.037415
2.563853,0.540778,0.758525,-9.572487,0.037721,-0.093004,-0.036499
2.571958,0.539581,0.750150,-9.534202,0.036957,-0.093004,-0.036499
2.580323,0.563510,0.754936,-9.537791,0.038943,-0.096059,-0.038026
2.587819,0.544367,0.750150,-9.540184,0.033598,-0.087048,-0.035736
2.596013,0.569492,0.739382,-9.571290,0.037110,-0.095600,-0.038790
2.603538,0.569492,0.739382,-9.571290,0.037110,-0.086437,-0.036652
2.611004,0.568295,0.765703,-9.566505,0.033139,-0.086437,-0.036652
2.618684,0.552742,0.741775,-9.553344,0.035888,-0.092088,-0.038943
2.626846,0.571885,0.742971,-9.537791,0.029474,-0.081245,-0.032070
2.635227,0.571885,0.747757,-9.522238,0.026420,-0.078038,-0.026878
2.643261,0.546760,0.747757,-9.522238,0.026420,-0.078038,-0.029780
2.651587,0.565903,0.760918,-9.554541,0.031154,-0.090255,-0.029780
2.660075,0.552742,0.739382,-9.540184,0.039248,-0.105527,-0.037263
2.673742,0.534796,0.727418,-9.535398,0.033292,-0.092699,-0.031307
2.681800,0.551546,0.756132,-9.561719,0.033292,-0.092699,-0.031307
2.689537,0.562313,0.774078,-9.524630,0.027947,-0.084910,-0.029322
2.697443,0.573081,0.788435,-9.549755,0.030085,-0.082620,-0.032681
2.705544,0.537189,0.776471,-9.573683,0.035888,-0.089186,-0.036805
2.713111,0.537189,0.776471,-9.573683,0.035888,-0.089186,-0.036805
2.720241,0.558724,0.766900,-9.546166,0.036041,-0.091783,-0.038179
2.727390,0.547956,0.799203,-9.533005,0.035430,-0.092241,-0.040317
2.734589,0.547956,0.799203,-9.533005,0.035888,-0.093157,-0.034819
2.741702,0.602991,0.769292,-9.529416,0.035888,-0.093157,-0.034819
2.748758,0.561117,0.783649,-9.553344,0.034056,-0.089492,-0.034208
2.755772,0.545564,0.769292,-9.597611,0.031460,-0.086437,-0.034972
2.763393,0.545564,0.769292,-9.597611,0.031460,-0.091324,-0.038637
2.771083,0.564706,0.750150,-9.530612,0.034361,-0.091324,-0.038637
2.775737,0.583849,0.740579,-9.584451,0.037263,-0.088728,-0.043066
2.780304,0.583849,0.740579,-9.584451,0.037263,-0.088728,-0.043066
2.784562,0.583849,0.740579,-9.584451,0.036041,-0.086437,-0.042302
2.788804,0.586242,0.781257,-9.561719,0.036041,-0.086437,-0.042302
2.793223,0.586242,0.781257,-9.561719,0.036041,-0.086437,-0.042302
2.797502,0.553938,0.764507,-9.531809,0.032987,-0.084452,-0.039706
2.801750,0.553938,0.764507,-9.531809,0.032987,-0.084452,-0.039706
2.805943,0.591027,0.748953,-9.547362,0.031154,-0.083078,-0.036805
2.810540,0.591027,0.748953,-9.547362,0.031154,-0.083078,-0.036805
2.814783,0.591027,0.748953,-9.547362,0.034819,-0.091630,-0.035430
2.819125,0.564706,0.742971,-9.535398,0.034819,-0.091630,-0.035430
2.823346,0.564706,0.742971,-9.535398,0.034819,-0.091630,-0.035430
2.827965,0.575474,0.740579,-9.555737,0.040928,-0.100945,-0.037415
2.832305,0.575474,0.740579,-9.555737,0.040928,-0.100945,-0.037415
2.836500,0.558724,0.732204,-9.506684,0.034514,-0.095448,-0.034667
2.840804,0.558724,0.732204,-9.506684,0.034514,-0.095448,-0.034667
2.845140,0.558724,0.732204,-9.552148,0.031765,-0.091783,-0.033750
2.849918,0.557528,0.727418,-9.552148,0.031765,-0.091783,-0.033750
2.854163,0.557528,0.727418,-9.552148,0.031765,-0.091783,-0.036041
2.858538,0.567099,0.720240,-9.572487,0.034514,-0.094531,-0.036041
2.863436,0.567099,0.720240,-9.572487,0.034514,-0.094531,-0.036041
2.869201,0.538385,0.746561,-9.542577,0.034056,-0.089034,-0.036041
2.874325,0.538385,0.746561,-9.542577,0.032834,-0.086437,-0.037415
2.879787,0.538385,0.789631,-9.589237,0.032834,-0.086437,-0.037415
2.884871,0.538385,0.789631,-9.589237,0.034514,-0.087659,-0.039095
2.890654,0.605384,0.781257,-9.552148,0.034514,-0.087659,-0.039095
2.895601,0.577867,0.765703,-9.529416,0.031154,-0.083689,-0.036957
2.900706,0.577867,0.765703,-9.529416,0.031154,-0.083689,-0.036957
2.905356,0.564706,0.788435,-9.550951,0.036041,-0.090713,-0.038943
2.910252,0.564706,0.788435,-9.550951,0.036041,-0.090713,-0.038943
2.914962,0.564706,0.788435,-9.528220,0.034972,-0.093921,-0.035736
2.920188,0.538385,0.770489,-9.528220,0.034972,-0.093921,-0.035736
2.925248,0.571885,0.752543,-9.537791,0.034819,-0.093615,-0.034819
2.930888,0.571885,0.752543,-9.537791,0.034819,-0.093615,-0.034819
2.936244,0.570688,0.728614,-9.552148,0.035888,-0.094226,-0.035125
2.941785,0.570688,0.728614,-9.552148,0.035888,-0.094226,-0.035125
2.946617,0.533599,0.731007,-9.538987,0.032987,-0.089644,-0.033750
2.951445,0.533599,0.731007,-9.538987,0.032987,-0.089644,-0.033750
2.956118,0.558724,0.750150,-9.549755,0.031765,-0.087812,-0.032834
2.960885,0.558724,0.750150,-9.549755,0.031765,-0.087812,-0.032834
2.965621,0.547956,0.753739,-9.525827,0.030543,-0.084910,-0.033598
2.970768,0.547956,0.753739,-9.525827,0.030543,-0.084910,-0.033598
2.980793,0.586242,0.756132,-9.540184,0.029322,-0.082314,-0.030849
2.986116,0.562313,0.768096,-9.537791,0.030696,-0.084147,-0.031918
2.991118,0.562313,0.768096,-9.537791,0.030696,-0.084147,-0.031918
2.995727,0.593420,0.768096,-9.560523,0.033292,-0.092088,-0.032529
3.000755,0.593420,0.768096,-9.560523,0.033292,-0.092088,-0.032529
3.005948,0.563510,0.769292,-9.546166,0.034361,-0.088881,-0.030849
3.010782,0.563510,0.769292,-9.546166,0.034361,-0.088881,-0.030849
3.015371,0.545564,0.774078,-9.570094,0.036805,-0.093768,-0.033903
3.020148,0.545564,0.774078,-9.570094,0.036805,-0.093768,-0.033903
3.025360,0.553938,0.768096,-9.535398,0.036041,-0.094837,-0.035277
3.030180,0.553938,0.768096,-9.535398,0.036041,-0.094837,-0.035277
3.035001,0.559920,0.742971,-9.548559,0.036041,-0.093157,-0.034667
3.039884,0.559920,0.742971,-9.548559,0.036041,-0.093157,-0.034667
3.044744,0.559920,0.742971,-9.535398,0.030696,-0.083383,-0.032223
3.049616,0.550349,0.738186,-9.535398,0.030696,-0.083383,-0.032223
3.054893,0.547956,0.751346,-9.528220,0.036194,-0.094226,-0.035736
3.059930,0.547956,0.751346,-9.528220,0.036194,-0.094226,-0.035736
3.065008,0.569492,0.756132,-9.495916,0.034972,-0.093157,-0.033445
3.069868,0.569492,0.756132,-9.495916,0.034972,-0.093157,-0.033445
3.075336,0.563510,0.752543,-9.553344,0.034972,-0.089950,-0.032834
3.080520,0.563510,0.752543,-9.553344,0.034972,-0.089950,-0.032834
3.085801,0.543171,0.764507,-9.549755,0.032376,-0.086132,-0.030543
3.091153,0.543171,0.764507,-9.549755,0.032376,-0.086132,-0.030543
3.096317,0.545564,0.770489,-9.519845,0.036194,-0.093768,-0.034667
3.101347,0.545564,0.770489,-9.519845,0.036194,-0.093768,-0.034667
3.106082,0.573081,0.771685,-9.518648,0.033750,-0.088728,-0.036499
3.110528,0.573081,0.771685,-9.518648,0.033750,-0.088728,-0.036499
3.115849,0.550349,0.780060,-9.529416,0.036194,-0.090713,-0.039401
3.120486,0.550349,0.780060,-9.529416,0.036194,-0.090713,-0.039401
3.125330,0.558724,0.786042,-9.546166,0.032070,-0.083994,-0.036957
3.129766,0.558724,0.786042,-9.546166,0.032070,-0.083994,-0.036957
3.134346,0.558724,0.786042,-9.546166,0.032376,-0.086590,-0.036194
3.138859,0.558724,0.760918,-9.572487,0.032376,-0.086590,-0.036194
3.143573,0.558724,0.760918,-9.572487,0.032376,-0.086590,-0.036346
3.148143,0.563510,0.738186,-9.586844,0.035583,-0.092393,-0.036346
3.152571,0.563510,0.738186,-9.586844,0.035583,-0.092393,-0.036346
3.157061,0.537189,0.739382,-9.499506,0.035736,-0.092241,-0.036805
3.162622,0.537189,0.739382,-9.499506,0.035736,-0.092241,-0.036805
3.167217,0.559920,0.733400,-9.577272,0.034056,-0.094684,-0.033139
3.173337,0.559920,0.733400,-9.577272,0.034056,-0.094684,-0.031765
3.178811,0.564706,0.731007,-9.561719,0.034361,-0.094684,-0.031765
3.183681,0.564706,0.731007,-9.561719,0.034361,-0.099113,-0.035430
3.188126,0.558724,0.728614,-9.562916,0.036957,-0.099113,-0.035430
3.192888,0.558724,0.728614,-9.562916,0.036957,-0.099113,-0.035430
3.197556,0.540778,0.736989,-9.560523,0.034361,-0.098197,-0.031918
3.202113,0.540778,0.736989,-9.560523,0.034361,-0.098197,-0.031918
3.206572,0.552742,0.757328,-9.529416,0.030543,-0.091019,-0.029322
3.211167,0.552742,0.757328,-9.529416,0.030543,-0.091019,-0.029322
3.216700,0.583849,0.770489,-9.523434,0.032681,-0.092088,-0.030238
3.221218,0.583849,0.770489,-9.523434,0.032681,-0.092088,-0.030238
3.225724,0.573081,0.764507,-9.537791,0.030391,-0.087812,-0.026573
3.230483,0.573081,0.764507,-9.537791,0.030391,-0.087812,-0.026573
3.235121,0.564706,0.772882,-9.561719,0.032987,-0.092852,-0.029932
3.239814,0.564706,0.772882,-9.561719,0.032987,-0.092852,-0.029932
3.246358,0.555135,0.787239,-9.540184,0.030543,-0.087965,-0.032223
3.251157,0.555135,0.787239,-9.540184,0.030543,-0.087965,-0.032223
3.255781,0.576670,0.770489,-9.530612,0.030085,-0.082467,-0.030391
3.260383,0.576670,0.770489,-9.530612,0.030085,-0.082467,-0.030391
3.265033,0.589831,0.793221,-9.507881,0.031154,-0.086132,-0.032529
3.269648,0.589831,0.793221,-9.507881,0.032070,-0.090103,-0.034667
3.279418,0.564706,0.772882,-9.556933,0.032070,-0.090103,-0.034667
3.284039,0.564706,0.772882,-9.556933,0.035430,-0.093004,-0.035125
3.288857,0.586242,0.754936,-9.518648,0.035430,-0.093004,-0.035125
3.294304,0.586242,0.754936,-9.560523,0.037415,-0.098044,-0.036499
3.299482,0.573081,0.746561,-9.560523,0.037415,-0.098044,-0.036499
3.304632,0.537189,0.725025,-9.577272,0.032834,-0.088575,-0.032376
3.312027,0.537189,0.725025,-9.577272,0.032834,-0.088575,-0.032376
3.317656,0.569492,0.728614,-9.555737,0.033139,-0.089186,-0.033445
3.322354,0.569492,0.728614,-9.555737,0.033139,-0.089186,-0.033445
3.326967,0.546760,0.756132,-9.547362,0.035736,-0.096211,-0.034972
3.331835,0.546760,0.756132,-9.547362,0.035736,-0.096211,-0.034972
3.336160,0.562313,0.758525,-9.578469,0.030696,-0.087354,-0.032987
3.340554,0.562313,0.758525,-9.578469,0.030696,-0.087354,-0.032987
3.345239,0.537189,0.756132,-9.537791,0.032987,-0.089492,-0.034056
3.349790,0.537189,0.756132,-9.537791,0.032987,-0.089492,-0.034056
3.354681,0.556331,0.778864,-9.512666,0.034514,-0.094531,-0.034667
3.359774,0.556331,0.778864,-9.512666,0.034514,-0.094531,-0.034667
3.364669,0.530010,0.763310,-9.541380,0.029016,-0.087354,-0.030696
3.369312,0.530010,0.763310,-9.541380,0.029016,-0.087354,-0.030696
3.373817,0.530010,0.763310,-9.541380,0.033445,-0.091935,-0.034208
3.381366,0.556331,0.788435,-9.565308,0.030849,-0.089644,-0.031154
3.389841,0.567099,0.734597,-9.570094,0.030849,-0.089644,-0.031154
3.394877,0.550349,0.754936,-9.538987,0.032376,-0.090255,-0.032834
3.399924,0.550349,0.754936,-9.538987,0.032376,-0.090255,-0.032834
3.404833,0.546760,0.772882,-9.620343,0.033750,-0.089797,-0.033903
3.409805,0.546760,0.772882,-9.620343,0.033750,-0.089797,-0.033903
3.415298,0.547956,0.771685,-9.586844,0.033292,-0.087506,-0.035583
3.420693,0.547956,0.771685,-9.586844,0.033292,-0.087506,-0.035583
3.425365,0.586242,0.802792,-9.542577,0.030085,-0.083841,-0.036499
3.430017,0.586242,0.802792,-9.542577,0.030085,-0.083841,-0.036499
3.434706,0.571885,0.798006,-9.533005,0.031460,-0.083383,-0.035277
3.439157,0.571885,0.798006,-9.533005,0.031460,-0.083383,-0.035277
3.443771,0.571885,0.798006,-9.533005,0.032987,-0.084910,-0.036041
3.448328,0.562313,0.775275,-9.556933,0.032987,-0.084910,-0.036041
3.453263,0.562313,0.775275,-9.556933,0.035125,-0.090561,-0.036346
3.457946,0.567099,0.750150,-9.513863,0.035125,-0.090561,-0.036346
3.463141,0.567099,0.750150,-9.513863,0.035125,-0.091935,-0.035736
3.467864,0.567099,0.738186,-9.533005,0.036346,-0.091935,-0.035736
3.472426,0.567099,0.738186,-9.533005,0.036346,-0.091935,-0.035736
3.477027,0.533599,0.723829,-9.535398,0.035736,-0.094684,-0.036194
3.481533,0.533599,0.723829,-9.535398,0.035736,-0.094684,-0.036194
3.486124,0.585045,0.750150,-9.527023,0.034972,-0.093615,-0.033139
3.493483,0.585045,0.750150,-9.527023,0.032529,-0.094073,-0.030543
3.498165,0.608973,0.725025,-9.572487,0.032529,-0.094073,-0.030543
3.502817,0.608973,0.725025,-9.572487,0.032529,-0.094073,-0.030543
3.507417,0.559920,0.710668,-9.516255,0.033750,-0.097280,-0.029932
3.512029,0.559920,0.710668,-9.516255,0.033750,-0.097280,-0.029932
3.516470,0.526421,0.747757,-9.546166,0.033292,-0.098197,-0.029169
3.520950,0.526421,0.747757,-9.546166,0.033292,-0.098197,-0.029169
3.525432,0.530010,0.739382,-9.590433,0.031612,-0.098502,-0.029016
3.530038,0.530010,0.739382,-9.590433,0.031612,-0.098502,-0.029016
3.534497,0.556331,0.750150,-9.544969,0.033750,-0.096211,-0.030696
3.538990,0.556331,0.750150,-9.544969,0.033750,-0.096211,-0.030696
3.543995,0.559920,0.801596,-9.495916,0.029474,-0.086437,-0.027031
3.548874,0.559920,0.801596,-9.495916,0.029474,-0.086437,-0.027031
3.553637,0.559920,0.801596,-9.495916,0.033903,-0.096364,-0.031612
3.558273,0.559920,0.795614,-9.558130,0.033903,-0.096364,-0.031612
3.562872,0.559920,0.795614,-9.558130,0.033903,-0.096364,-0.030543
3.570699,0.565903,0.787239,-9.525827,0.031918,-0.091172,-0.030543
3.575304,0.502493,0.801596,-9.516255,0.037568,-0.094684,-0.036346
3.580156,0.502493,0.801596,-9.516255,0.037568,-0.094684,-0.036346
3.584809,0.573081,0.809970,-9.541380,0.034514,-0.092393,-0.037415
3.589472,0.573081,0.809970,-9.541380,0.034514,-0.092393,-0.037415
3.594515,0.581456,0.806381,-9.483952,0.033445,-0.087201,-0.037415
3.600015,0.581456,0.806381,-9.483952,0.033445,-0.087201,-0.037415
3.604689,0.550349,0.778864,-9.536594,0.035125,-0.091477,-0.039554
3.609221,0.550349,0.778864,-9.536594,0.035125,-0.091477,-0.039554
3.613665,0.550349,0.778864,-9.536594,0.036041,-0.091019,-0.038179
3.620092,0.556331,0.762114,-9.543773,0.036041,-0.091019,-0.038179
3.624614,0.568295,0.747757,-9.540184,0.035430,-0.092088,-0.036499
3.629051,0.568295,0.747757,-9.540184,0.035430,-0.092088,-0.036499
3.645693,0.559920,0.736989,-9.552148,0.033750,-0.087506,-0.037415
3.650601,0.559920,0.736989,-9.552148,0.033750,-0.087506,-0.037415
3.655540,0.567099,0.753739,-9.531809,0.031154,-0.084299,-0.038026
3.659979,0.567099,0.753739,-9.531809,0.031154,-0.084299,-0.038026
3.664475,0.547956,0.747757,-9.531809,0.031612,-0.083994,-0.037568
3.668982,0.547956,0.747757,-9.531809,0.031612,-0.083994,-0.037568
3.674645,0.550349,0.731007,-9.546166,0.034667,-0.087354,-0.037721
3.679082,0.550349,0.731007,-9.546166,0.034667,-0.087354,-0.037721
3.683386,0.550349,0.731007,-9.546166,0.032223,-0.084605,-0.035430
3.687964,0.588634,0.760918,-9.553344,0.032223,-0.084605,-0.035430
3.692652,0.588634,0.760918,-9.553344,0.032223,-0.084605,-0.032070
3.697260,0.567099,0.734597,-9.527023,0.027031,-0.078343,-0.032070
3.701592,0.567099,0.734597,-9.527023,0.027031,-0.078343,-0.032070
3.706254,0.526421,0.763310,-9.499506,0.036805,-0.096059,-0.038790
3.710950,0.526421,0.763310,-9.499506,0.036805,-0.096059,-0.038790
3.715530,0.557528,0.753739,-9.560523,0.032070,-0.088117,-0.033445
3.720150,0.557528,0.753739,-9.560523,0.032070,-0.088117,-0.033445
3.724849,0.507278,0.742971,-9.586844,0.032987,-0.090103,-0.035583
3.729664,0.507278,0.742971,-9.586844,0.032987,-0.090103,-0.035583
3.734534,0.583849,0.766900,-9.564112,0.032070,-0.088881,-0.033292
3.739473,0.583849,0.766900,-9.564112,0.032070,-0.088881,-0.033292
3.744144,0.545564,0.758525,-9.534202,0.036499,-0.093310,-0.036805
3.748698,0.545564,0.758525,-9.534202,0.036499,-0.093310,-0.036805
3.754804,0.506082,0.772882,-9.579665,0.035125,-0.093004,-0.038485
3.759330,0.506082,0.772882,-9.579665,0.035125,-0.093004,-0.038485
3.763719,0.506082,0.740579,-9.558130,0.033598,-0.090408,-0.034819
3.768229,0.575474,0.740579,-9.558130,0.033598,-0.090408,-0.034819
3.772606,0.575474,0.740579,-9.558130,0.033598,-0.090408,-0.036957
3.777181,0.573081,0.766900,-9.560523,0.036652,-0.095448,-0.036957
3.785590,0.539581,0.747757,-9.547362,0.035583,-0.091783,-0.036957
3.790174,0.539581,0.747757,-9.547362,0.035583,-0.091783,-0.036957
3.797316,0.557528,0.739382,-9.528220,0.037263,-0.095600,-0.037568
3.802119,0.557528,0.739382,-9.528220,0.037263,-0.095600,-0.037568
3.807662,0.573081,0.765703,-9.542577,0.035583,-0.093004,-0.037415
3.812419,0.573081,0.765703,-9.542577,0.035583,-0.087812,-0.035277
3.817561,0.557528,0.741775,-9.567701,0.032834,-0.087812,-0.035277
3.822469,0.557528,0.741775,-9.567701,0.032834,-0.087812,-0.040012
3.826947,0.535992,0.754936,-9.556933,0.035125,-0.093004,-0.040012
3.831525,0.535992,0.754936,-9.556933,0.035125,-0.093004,-0.040012
3.836137,0.565903,0.747757,-9.578469,0.032987,-0.091172,-0.038179
3.841229,0.565903,0.747757,-9.578469,0.032987,-0.091172,-0.038179
3.845969,0.568295,0.753739,-9.479167,0.030238,-0.086896,-0.035430
3.850679,0.568295,0.753739,-9.479167,0.030238,-0.086896,-0.035430
3.855295,0.562313,0.738186,-9.547362,0.031612,-0.088117,-0.033903
3.860045,0.562313,0.738186,-9.547362,0.031612,-0.088117,-0.033903
3.864811,0.551546,0.757328,-9.588040,0.031307,-0.089492,-0.033292
3.869885,0.551546,0.757328,-9.588040,0.031307,-0.089492,-0.033292
3.874735,0.582652,0.765703,-9.541380,0.032834,-0.094684,-0.033750
3.879559,0.582652,0.765703,-9.541380,0.032834,-0.094684,-0.033750
3.884295,0.516850,0.764507,-9.506684,0.034514,-0.093157,-0.031460
3.888853,0.516850,0.764507,-9.506684,0.034514,-0.093157,-0.031460
3.893296,0.516850,0.764507,-9.543773,0.034667,-0.093615,-0.033598
3.897913,0.551546,0.764507,-9.543773,0.034667,-0.093615,-0.033598
3.902400,0.551546,0.764507,-9.543773,0.034667,-0.093615,-0.038332
3.906854,0.552742,0.775275,-9.522238,0.038485,-0.097280,-0.038332
3.911283,0.552742,0.775275,-9.522238,0.038485,-0.097280,-0.038332
3.917517,0.561117,0.783649,-9.507881,0.039095,-0.096822,-0.037568
3.922214,0.561117,0.783649,-9.507881,0.039095,-0.096822,-0.037568
3.926511,0.541974,0.757328,-9.527023,0.036194,-0.094073,-0.039401
3.931001,0.541974,0.757328,-9.527023,0.036194,-0.094073,-0.039401
3.935526,0.552742,0.788435,-9.533005,0.030238,-0.084147,-0.034208
3.940408,0.552742,0.788435,-9.533005,0.030238,-0.084147,-0.034208
3.944954,0.598206,0.776471,-9.499506,0.032223,-0.088423,-0.034208
3.949578,0.598206,0.776471,-9.499506,0.032223,-0.088423,-0.034208
3.954149,0.556331,0.766900,-9.585647,0.032987,-0.090255,-0.033139
3.958776,0.556331,0.766900,-9.585647,0.032987,-0.090255,-0.033139
3.963294,0.556331,0.771685,-9.573683,0.034514,-0.093615,-0.034208
3.967784,0.580259,0.771685,-9.573683,0.034514,-0.093615,-0.034208
3.972283,0.580259,0.771685,-9.573683,0.034514,-0.093615,-0.034514
3.979883,0.563510,0.754936,-9.506684,0.034361,-0.092852,-0.034514
3.984911,0.540778,0.765703,-9.546166,0.035277,-0.093462,-0.034208
3.989657,0.540778,0.765703,-9.546166,0.035277,-0.093462,-0.034208
3.994240,0.568295,0.752543,-9.576076,0.034208,-0.091019,-0.033903
3.999063,0.568295,0.752543,-9.576076,0.034208,-0.091019,-0.033903
4.003907,0.587438,0.754936,-9.558130,0.037568,-0.094684,-0.039401
4.008462,0.587438,0.754936,-9.558130,0.037568,-0.094684,-0.039401
4.013192,0.587438,0.754936,-9.544969,0.033903,-0.088575,-0.036499
4.020902,0.553938,0.752543,-9.544969,0.033903,-0.088575,-0.036499
4.029927,0.569492,0.757328,-9.565308,0.034514,-0.092699,-0.034667
4.035049,0.525225,0.752543,-9.529416,0.037110,-0.097891,-0.032987
4.040063,0.525225,0.752543,-9.529416,0.037110,-0.097891,-0.032987
4.045079,0.582652,0.747757,-9.562916,0.035125,-0.095600,-0.032223
4.050259,0.582652,0.747757,-9.562916,0.035125,-0.095600,-0.032223
4.055274,0.556331,0.759721,-9.550951,0.036346,-0.098960,-0.033139
4.059848,0.556331,0.759721,-9.550951,0.036346,-0.098960,-0.033139
4.064735,0.565903,0.774078,-9.558130,0.032376,-0.090255,-0.029169
4.070126,0.565903,0.774078,-9.558130,0.032376,-0.090255,-0.029169
4.075988,0.582652,0.776471,-9.541380,0.034667,-0.090866,-0.033292
4.081726,0.582652,0.776471,-9.541380,0.034667,-0.090866,-0.034667
4.086682,0.569492,0.776471,-9.516255,0.034056,-0.088117,-0.034667
4.091303,0.569492,0.776471,-9.516255,0.034056,-0.088117,-0.034667
4.095942,0.562313,0.762114,-9.561719,0.036957,-0.092393,-0.038332
4.100749,0.562313,0.762114,-9.561719,0.036957,-0.092393,-0.038332
4.105424,0.589831,0.787239,-9.522238,0.032834,-0.085979,-0.037110
4.110182,0.589831,0.787239,-9.522238,0.032834,-0.085979,-0.037110
4.115059,0.553938,0.786042,-9.523434,0.028711,-0.083230,-0.035277
4.119812,0.553938,0.786042,-9.523434,0.028711,-0.083230,-0.035277
4.124372,0.545564,0.756132,-9.524630,0.033598,-0.087659,-0.035583
4.129198,0.545564,0.756132,-9.524630,0.033598,-0.087659,-0.035583
4.133943,0.565903,0.752543,-9.535398,0.031001,-0.081551,-0.033598
4.138402,0.565903,0.752543,-9.535398,0.031001,-0.081551,-0.033598
4.142897,0.565903,0.752543,-9.540184,0.031307,-0.084910,-0.034514
4.147471,0.553938,0.750150,-9.540184,0.031307,-0.084910,-0.034514
4.152206,0.553938,0.750150,-9.540184,0.033445,-0.087812,-0.036346
4.156830,0.561117,0.751346,-9.579665,0.033445,-0.087812,-0.036346
4.164247,0.545564,0.734597,-9.534202,0.036957,-0.092393,-0.041233
4.169822,0.545564,0.734597,-9.534202,0.036957,-0.092393,-0.041233
4.174490,0.559920,0.736989,-9.544969,0.032987,-0.086743,-0.036805
4.178927,0.559920,0.736989,-9.544969,0.032987,-0.086743,-0.036805
4.183060,0.559920,0.742971,-9.536594,0.037263,-0.095753,-0.036652
4.187130,0.562313,0.742971,-9.536594,0.037263,-0.095753,-0.036652
4.191235,0.562313,0.742971,-9.536594,0.037263,-0.095753,-0.036652
4.195392,0.559920,0.745364,-9.524630,0.038332,-0.097891,-0.037721
4.199733,0.559920,0.745364,-9.524630,0.038332,-0.097891,-0.037721
4.203936,0.556331,0.717847,-9.507881,0.031307,-0.087354,-0.034361
4.208083,0.556331,0.717847,-9.507881,0.031307,-0.087354,-0.034361
4.212168,0.556331,0.717847,-9.507881,0.030391,-0.085216,-0.031765
4.216346,0.534796,0.751346,-9.558130,0.030391,-0.085216,-0.031765
4.220477,0.534796,0.751346,-9.558130,0.030391,-0.085216,-0.031765
4.224572,0.550349,0.764507,-9.560523,0.031765,-0.087048,-0.034361
4.228636,0.550349,0.764507,-9.560523,0.031765,-0.087048,-0.034361
4.232736,0.550349,0.764507,-9.531809,0.031460,-0.087201,-0.035583
4.236925,0.538385,0.750150,-9.531809,0.031460,-0.087201,-0.035583
4.241098,0.538385,0.750150,-9.531809,0.031460,-0.087201,-0.035583
4.245163,0.564706,0.777667,-9.538987,0.032070,-0.089644,-0.034667
4.249942,0.564706,0.777667,-9.538987,0.032070,-0.089644,-0.034667
4.254156,0.589831,0.782453,-9.518648,0.033598,-0.088881,-0.037110
4.258399,0.589831,0.782453,-9.518648,0.033598,-0.088881,-0.037110
4.262529,0.589831,0.782453,-9.518648,0.033750,-0.087812,-0.033903
4.266597,0.550349,0.769292,-9.544969,0.033750,-0.087812,-0.033903
4.270662,0.550349,0.769292,-9.544969,0.033750,-0.087812,-0.033903
4.274712,0.557528,0.754936,-9.548559,0.035888,-0.094226,-0.035277
4.279216,0.557528,0.754936,-9.548559,0.035888,-0.094226,-0.035277
4.283309,0.552742,0.764507,-9.571290,0.037415,-0.097280,-0.034361
4.287379,0.552742,0.764507,-9.571290,0.037415,-0.097280,-0.034361
4.291462,0.552742,0.764507,-9.571290,0.037415,-0.097280,-0.034361
4.296242,0.598206,0.766900,-9.536594,0.034514,-0.090408,-0.031154
4.301157,0.598206,0.766900,-9.536594,0.034514,-0.090408,-0.031154
4.305312,0.564706,0.731007,-9.572487,0.037874,-0.098349,-0.035277
4.309406,0.564706,0.731007,-9.572487,0.037874,-0.098349,-0.035277
4.313473,0.564706,0.731007,-9.570094,0.032987,-0.087201,-0.031918
4.317751,0.564706,0.731007,-9.570094,0.032987,-0.087201,-0.031918
4.321912,0.564706,0.731007,-9.570094,0.032987,-0.089950,-0.034056
4.326024,0.553938,0.747757,-9.503095,0.035277,-0.089950,-0.034056
4.330168,0.553938,0.747757,-9.503095,0.035277,-0.089950,-0.034056
4.334240,0.555135,0.750150,-9.475577,0.033598,-0.093310,-0.034361
4.338386,0.555135,0.750150,-9.475577,0.033598,-0.093310,-0.034361
4.342509,0.555135,0.750150,-9.475577,0.031612,-0.089034,-0.031460
4.346582,0.580259,0.750150,-9.531809,0.031612,-0.089034,-0.031460
4.350842,0.580259,0.750150,-9.531809,0.031612,-0.089034,-0.031460
4.354996,0.515653,0.793221,-9.528220,0.033903,-0.092852,-0.032681
4.359259,0.515653,0.793221,-9.528220,0.033903,-0.092852,-0.032681
4.363416,0.587438,0.757328,-9.566505,0.036346,-0.094684,-0.033598
4.367488,0.587438,0.757328,-9.566505,0.036346,-0.094684,-0.033598
4.371561,0.587438,0.757328,-9.566505,0.036346,-0.094684,-0.036346
4.375613,0.563510,0.769292,-9.567701,0.037110,-0.098044,-0.036346
4.379797,0.563510,0.769292,-9.567701,0.037110,-0.098044,-0.036346
4.383902,0.535992,0.746561,-9.561719,0.032070,-0.086132,-0.033598
4.387999,0.535992,0.746561,-9.561719,0.032070,-0.086132,-0.033598
4.392091,0.535992,0.746561,-9.561719,0.036499,-0.098807,-0.033903
4.396204,0.569492,0.775275,-9.517452,0.036499,-0.098807,-0.033903
4.400509,0.569492,0.775275,-9.517452,0.036499,-0.098807,-0.033903
4.404754,0.547956,0.764507,-9.602397,0.034361,-0.092852,-0.034361
4.408848,0.547956,0.764507,-9.602397,0.034361,-0.092852,-0.034361
4.412920,0.525225,0.774078,-9.529416,0.031765,-0.087965,-0.033292
4.417012,0.525225,0.774078,-9.529416,0.031765,-0.087965,-0.033292
4.421219,0.525225,0.774078,-9.529416,0.031765,-0.087965,-0.033292
4.425304,0.613759,0.769292,-9.553344,0.032987,-0.088423,-0.037110
4.429383,0.613759,0.769292,-9.553344,0.032987,-0.088423,-0.037110
4.433447,0.593420,0.750150,-9.588040,0.031460,-0.085368,-0.038026
4.437524,0.593420,0.750150,-9.588040,0.031460,-0.085368,-0.038026
4.441959,0.593420,0.750150,-9.588040,0.032223,-0.082467,-0.036805
4.446745,0.555135,0.781257,-9.543773,0.032223,-0.082467,-0.036805
4.451058,0.555135,0.781257,-9.543773,0.032223,-0.082467,-0.036805
4.455256,0.559920,0.766900,-9.547362,0.035125,-0.088423,-0.039859
4.459399,0.559920,0.766900,-9.547362,0.035125,-0.088423,-0.039859
4.463536,0.604188,0.776471,-9.546166,0.036805,-0.092852,-0.041081
4.467620,0.604188,0.776471,-9.546166,0.036805,-0.092852,-0.041081
4.471704,0.604188,0.776471,-9.546166,0.036805,-0.096364,-0.040623
4.475755,0.543171,0.763310,-9.546166,0.038637,-0.096364,-0.040623
4.479892,0.543171,0.763310,-9.546166,0.038637,-0.096364,-0.040623
4.484024,0.557528,0.746561,-9.578469,0.031918,-0.085979,-0.033292
4.488106,0.557528,0.746561,-9.578469,0.031918,-0.085979,-0.033292
4.492172,0.557528,0.746561,-9.578469,0.034361,-0.094226,-0.033445
4.496573,0.564706,0.742971,-9.562916,0.034361,-0.094226,-0.033445
4.500812,0.564706,0.742971,-9.562916,0.034361,-0.094226,-0.033445
4.505010,0.563510,0.753739,-9.534202,0.034514,-0.091477,-0.034514
4.509134,0.563510,0.753739,-9.534202,0.034514,-0.091477,-0.034514
4.513229,0.564706,0.747757,-9.549755,0.032529,-0.086896,-0.035736
4.517292,0.564706,0.747757,-9.549755,0.032529,-0.086896,-0.035736
4.521474,0.564706,0.747757,-9.549755,0.032529,-0.087965,-0.038790
4.525590,0.569492,0.770489,-9.531809,0.035277,-0.087965,-0.038790
4.529665,0.569492,0.770489,-9.531809,0.035277,-0.087965,-0.038790
4.533770,0.531207,0.764507,-9.580862,0.034361,-0.086132,-0.039095
4.537834,0.531207,0.764507,-9.580862,0.034361,-0.086132,-0.039095
4.542034,0.531207,0.764507,-9.580862,0.038026,-0.090255,-0.042913
4.546130,0.574277,0.758525,-9.533005,0.038026,-0.090255,-0.042913
4.550256,0.574277,0.758525,-9.533005,0.038026,-0.090255,-0.042913
4.554556,0.558724,0.741775,-9.548559,0.039554,-0.096211,-0.044288
4.558655,0.558724,0.741775,-9.548559,0.039554,-0.096211,-0.044288
4.562864,0.558724,0.758525,-9.517452,0.033139,-0.086285,-0.035888
4.566953,0.558724,0.758525,-9.517452,0.033139,-0.086285,-0.035888
4.571071,0.558724,0.758525,-9.517452,0.033139,-0.086285,-0.035888
4.575138,0.534796,0.770489,-9.544969,0.034361,-0.093004,-0.032070
4.579216,0.534796,0.770489,-9.544969,0.034361,-0.093004,-0.032070
4.583399,0.595813,0.740579,-9.540184,0.033292,-0.094379,-0.031918
4.587488,0.595813,0.740579,-9.540184,0.033292,-0.094379,-0.031918
4.591778,0.595813,0.740579,-9.540184,0.032070,-0.088575,-0.031918
4.595852,0.553938,0.746561,-9.519845,0.032070,-0.088575,-0.031918
4.599920,0.553938,0.746561,-9.519845,0.032070,-0.088575,-0.031918
4.604278,0.543171,0.754936,-9.523434,0.034667,-0.090713,-0.035125
4.608400,0.543171,0.754936,-9.523434,0.034667,-0.090713,-0.035125
4.612484,0.564706,0.790828,-9.546166,0.033445,-0.086590,-0.038790
4.616553,0.564706,0.790828,-9.546166,0.033445,-0.086590,-0.038790
4.620628,0.564706,0.790828,-9.546166,0.033445,-0.086590,-0.038790
4.624856,0.558724,0.771685,-9.546166,0.034819,-0.088270,-0.042761
4.628971,0.558724,0.771685,-9.546166,0.034819,-0.088270,-0.042761
4.633036,0.577867,0.777667,-9.495916,0.035736,-0.092699,-0.041997
4.637115,0.577867,0.777667,-9.495916,0.035736,-0.092699,-0.041997
4.641180,0.577867,0.777667,-9.495916,0.035736,-0.092699,-0.038943
4.645355,0.583849,0.782453,-9.585647,0.035888,-0.093462,-0.038943
4.649451,0.583849,0.782453,-9.585647,0.035888,-0.093462,-0.038943
4.653763,0.561117,0.754936,-9.519845,0.036805,-0.095448,-0.037874
4.657876,0.561117,0.754936,-9.519845,0.036805,-0.095448,-0.037874
4.662111,0.561117,0.754936,-9.541380,0.035736,-0.095600,-0.034208
4.666284,0.551546,0.714258,-9.541380,0.035736,-0.095600,-0.034208
4.670369,0.551546,0.714258,-9.541380,0.035736,-0.095600,-0.034208
4.674460,0.561117,0.744168,-9.552148,0.037874,-0.097891,-0.034819
4.678594,0.561117,0.744168,-9.552148,0.037874,-0.097891,-0.034819
4.682719,0.577867,0.753739,-9.538987,0.035125,-0.095600,-0.035125
4.686867,0.577867,0.753739,-9.538987,0.035125,-0.095600,-0.035125
4.690952,0.577867,0.753739,-9.538987,0.035125,-0.095600,-0.035125
4.695357,0.559920,0.721436,-9.546166,0.030849,-0.087659,-0.032223
4.699457,0.559920,0.721436,-9.546166,0.030849,-0.087659,-0.032223
4.703865,0.586242,0.729811,-9.580862,0.035125,-0.095906,-0.035430
4.708064,0.586242,0.729811,-9.580862,0.035125,-0.095906,-0.035430
4.712145,0.586242,0.736989,-9.517452,0.032681,-0.092546,-0.034208
4.716218,0.573081,0.736989,-9.517452,0.032681,-0.092546,-0.034208
4.720294,0.573081,0.736989,-9.517452,0.032681,-0.092546,-0.034208
4.724430,0.552742,0.748953,-9.565308,0.031001,-0.091477,-0.033750
4.728581,0.552742,0.748953,-9.565308,0.031001,-0.091477,-0.033750
4.732651,0.581456,0.771685,-9.577272,0.029016,-0.084910,-0.028558
4.736723,0.581456,0.771685,-9.577272,0.029016,-0.084910,-0.028558
4.740803,0.581456,0.771685,-9.577272,0.029016,-0.084910,-0.028558
4.745037,0.568295,0.762114,-9.582058,0.032987,-0.093462,-0.030543
4.749180,0.568295,0.762114,-9.582058,0.032987,-0.093462,-0.030543
4.753444,0.530010,0.760918,-9.564112,0.032987,-0.091935,-0.031460
4.757615,0.530010,0.760918,-9.564112,0.032987,-0.091935,-0.031460
4.761758,0.530010,0.760918,-9.564112,0.033598,-0.090713,-0.034208
4.765947,0.544367,0.766900,-9.534202,0.033598,-0.090713,-0.034208
4.770041,0.544367,0.766900,-9.534202,0.033598,-0.090713,-0.034208
4.774111,0.563510,0.766900,-9.572487,0.034819,-0.092393,-0.035125
4.778179,0.563510,0.766900,-9.572487,0.034819,-0.092393,-0.035125
4.782248,0.557528,0.780060,-9.483952,0.033139,-0.085827,-0.034819
4.786459,0.557528,0.780060,-9.483952,0.033139,-0.085827,-0.034819
4.790551,0.557528,0.780060,-9.483952,0.033139,-0.085827,-0.034819
4.794627,0.541974,0.764507,-9.501899,0.037568,-0.094226,-0.040012
4.798715,0.541974,0.764507,-9.501899,0.037568,-0.094226,-0.040012
4.802882,0.541974,0.762114,-9.533005,0.034514,-0.092852,-0.034514
4.807152,0.541974,0.762114,-9.533005,0.034514,-0.092852,-0.034514
4.811292,0.541974,0.762114,-9.533005,0.032681,-0.089644,-0.032681
4.815418,0.597009,0.754936,-9.547362,0.032681,-0.089644,-0.032681
4.819529,0.597009,0.754936,-9.547362,0.032681,-0.089644,-0.032681
4.823604,0.531207,0.729811,-9.577272,0.034972,-0.095448,-0.033445
4.827795,0.531207,0.729811,-9.577272,0.034972,-0.095448,-0.033445
4.831901,0.531207,0.723829,-9.536594,0.032681,-0.091935,-0.032529
4.836001,0.530010,0.723829,-9.536594,0.032681,-0.091935,-0.032529
4.840160,0.530010,0.723829,-9.536594,0.032681,-0.091935,-0.032529
4.844233,0.545564,0.717847,-9.536594,0.035888,-0.098044,-0.033598
4.848436,0.545564,0.717847,-9.536594,0.035888,-0.098044,-0.033598
4.852621,0.553938,0.738186,-9.515059,0.033292,-0.093462,-0.033750
4.857028,0.553938,0.738186,-9.515059,0.033292,-0.093462,-0.033750
4.861138,0.553938,0.738186,-9.515059,0.032070,-0.091172,-0.034208
4.865275,0.582652,0.725025,-9.550951,0.032070,-0.091172,-0.034208
4.869471,0.582652,0.725025,-9.550951,0.032070,-0.091172,-0.034208
4.873554,0.526421,0.766900,-9.552148,0.037721,-0.097891,-0.039095
4.877642,0.526421,0.766900,-9.552148,0.037721,-0.097891,-0.039095
4.881718,0.526421,0.766900,-9.534202,0.035583,-0.093768,-0.035736
4.885936,0.547956,0.756132,-9.534202,0.035583,-0.093768,-0.035736
4.893828,0.558724,0.766900,-9.530612,0.034819,-0.091324,-0.034361
4.902745,0.573081,0.783649,-9.550951,0.033445,-0.091935,-0.033445
4.911280,0.573081,0.762114,-9.519845,0.031307,-0.088575,-0.033750
4.919528,0.557528,0.762114,-9.519845,0.031307,-0.096211,-0.037568
4.927773,0.561117,0.741775,-9.529416,0.034972,-0.096211,-0.037568
4.936083,0.559920,0.756132,-9.544969,0.037415,-0.096669,-0.038026
4.944269,0.538385,0.762114,-9.600004,0.034972,-0.090561,-0.035736
4.952608,0.557528,0.750150,-9.528220,0.031918,-0.089034,-0.034208
4.961149,0.557528,0.764507,-9.559326,0.040928,-0.100945,-0.040164
4.969492,0.563510,0.764507,-9.559326,0.040928,-0.083383,-0.035736
4.977747,0.531207,0.744168,-9.562916,0.031001,-0.083383,-0.035736
4.985967,0.567099,0.754936,-9.506684,0.036805,-0.094073,-0.039859
4.994290,0.551546,0.741775,-9.528220,0.032987,-0.087506,-0.036652
5.002511,0.597009,0.754936,-9.537791,0.036194,-0.094990,-0.038332
5.011135,0.597009,0.770489,-9.546166,0.033445,-0.086285,-0.034514
5.019432,0.567099,0.770489,-9.546166,0.033445,-0.083689,-0.032834
5.027661,0.550349,0.752543,-9.578469,0.031612,-0.083689,-0.032834
5.036216,0.568295,0.753739,-9.550951,0.034208,-0.089950,-0.033445
5.044639,0.564706,0.775275,-9.536594,0.037721,-0.099266,-0.037263
5.053520,0.551546,0.768096,-9.524630,0.033445,-0.091935,-0.034667
5.061955,0.575474,0.757328,-9.536594,0.032987,-0.092241,-0.034667
5.070233,0.575474,0.757328,-9.536594,0.035583,-0.094990,-0.036194
5.078521,0.558724,0.759721,-9.553344,0.035583,-0.094990,-0.036194
5.087065,0.545564,0.757328,-9.576076,0.033750,-0.092241,-0.035736
5.095403,0.582652,0.765703,-9.570094,0.036499,-0.094990,-0.037721
5.103654,0.539581,0.760918,-9.543773,0.026878,-0.078343,-0.030849
5.112186,0.546760,0.768096,-9.542577,0.033903,-0.094073,-0.033139
5.120565,0.546760,0.768096,-9.580862,0.030238,-0.090103,-0.029932
5.128830,0.571885,0.771685,-9.580862,0.030238,-0.090103,-0.033292
5.137199,0.559920,0.764507,-9.519845,0.034361,-0.094379,-0.033292
5.145574,0.553938,0.774078,-9.567701,0.032987,-0.091630,-0.033598
5.154652,0.558724,0.784846,-9.570094,0.031154,-0.087048,-0.033139
5.163182,0.567099,0.772882,-9.538987,0.031307,-0.083536,-0.034056
5.172544,0.549153,0.770489,-9.542577,0.037110,-0.092393,-0.038026
5.181660,0.544367,0.760918,-9.528220,0.033292,-0.087506,-0.036957
5.189956,0.544367,0.760918,-9.528220,0.035583,-0.093157,-0.041081
5.197594,0.568295,0.763310,-9.511470,0.035583,-0.093157,-0.041081
5.205149,0.561117,0.745364,-9.512666,0.036194,-0.093921,-0.037263
5.212868,0.563510,0.736989,-9.558130,0.034361,-0.092699,-0.034056
5.220480,0.563510,0.736989,-9.578469,0.039095,-0.102014,-0.035430
5.227942,0.547956,0.745364,-9.578469,0.039095,-0.102014,-0.035430
5.235434,0.552742,0.723829,-9.540184,0.033445,-0.096211,-0.030849
5.243075,0.557528,0.710668,-9.542577,0.039554,-0.104000,-0.034514
5.250563,0.557528,0.710668,-9.583255,0.035277,-0.098960,-0.030696
5.258256,0.516850,0.734597,-9.583255,0.035277,-0.098960,-0.030696
5.265851,0.557528,0.732204,-9.561719,0.036499,-0.103847,-0.033750
5.273388,0.569492,0.745364,-9.527023,0.035125,-0.098044,-0.030849
5.281053,0.556331,0.745364,-9.522238,0.036805,-0.098655,-0.034208
5.288604,0.556331,0.745364,-9.522238,0.036805,-0.098655,-0.034208
5.297165,0.544367,0.768096,-9.495916,0.032376,-0.092546,-0.032376
5.305513,0.565903,0.783649,-9.554541,0.037874,-0.096669,-0.034819
5.313982,0.575474,0.801596,-9.517452,0.037415,-0.092852,-0.034514
5.322333,0.556331,0.795614,-9.489934,0.037110,-0.093921,-0.037874
5.330560,0.556331,0.805185,-9.555737,0.031307,-0.082925,-0.034361
5.338838,0.546760,0.805185,-9.555737,0.031307,-0.089034,-0.037568
5.349512,0.573081,0.782453,-9.506684,0.033445,-0.086132,-0.038790
5.357966,0.544367,0.784846,-9.535398,0.033445,-0.086132,-0.038790
5.366551,0.585045,0.774078,-9.516255,0.034208,-0.084758,-0.038026
5.374768,0.583849,0.760918,-9.489934,0.033445,-0.083841,-0.037110
5.383386,0.561117,0.753739,-9.541380,0.037721,-0.094990,-0.040775
5.391661,0.553938,0.764507,-9.602397,0.037874,-0.093615,-0.039248
5.400006,0.553938,0.764507,-9.550951,0.035888,-0.092393,-0.037415
5.408601,0.549153,0.738186,-9.550951,0.035888,-0.092699,-0.037263
5.417223,0.552742,0.728614,-9.566505,0.036652,-0.092699,-0.037263
5.425640,0.519243,0.745364,-9.565308,0.035583,-0.093462,-0.038179
5.433891,0.565903,0.742971,-9.578469,0.027794,-0.079107,-0.034361
5.442246,0.547956,0.745364,-9.596415,0.031612,-0.086132,-0.036041
5.450512,0.547956,0.726222,-9.523434,0.030849,-0.085368,-0.034514
5.459026,0.570688,0.726222,-9.523434,0.035430,-0.092546,-0.035430
5.467614,0.570688,0.739382,-9.554541,0.035430,-0.092546,-0.035430
5.475831,0.557528,0.764507,-9.585647,0.032376,-0.088575,-0.032681
5.484168,0.561117,0.754936,-9.600004,0.033292,-0.092852,-0.031765
5.492474,0.576670,0.765703,-9.540184,0.031307,-0.091019,-0.031460
5.501265,0.571885,0.780060,-9.573683,0.037415,-0.099113,-0.036041
5.509701,0.571885,0.780060,-9.573683,0.034667,-0.089492,-0.037110
5.518256,0.535992,0.777667,-9.572487,0.034667,-0.089492,-0.038637
5.526627,0.556331,0.757328,-9.527023,0.034056,-0.086896,-0.038637
5.534849,0.579063,0.774078,-9.518648,0.039095,-0.095600,-0.041692
5.543101,0.551546,0.768096,-9.553344,0.034819,-0.092088,-0.039554
5.551495,0.592224,0.774078,-9.555737,0.031154,-0.086896,-0.035125
5.559957,0.592224,0.774078,-9.553344,0.034972,-0.092699,-0.034972
5.568797,0.577867,0.738186,-9.553344,0.037568,-0.099113,-0.035430
5.577071,0.570688,0.736989,-9.538987,0.037568,-0.099113,-0.035430
5.585400,0.576670,0.729811,-9.567701,0.031154,-0.089950,-0.030238
5.593657,0.549153,0.748953,-9.518648,0.029322,-0.087965,-0.030085
5.601108,0.533599,0.744168,-9.529416,0.033292,-0.090561,-0.032070
5.608949,0.533599,0.744168,-9.529416,0.036041,-0.094684,-0.034514
5.616729,0.565903,0.772882,-9.555737,0.036041,-0.094684,-0.034514
5.624310,0.574277,0.763310,-9.554541,0.029016,-0.080940,-0.031612
5.631845,0.558724,0.765703,-9.542577,0.036805,-0.096059,-0.038943
5.639337,0.558724,0.765703,-9.542577,0.039554,-0.102167,-0.040012
5.646870,0.565903,0.774078,-9.549755,0.039554,-0.102167,-0.040012
5.654447,0.569492,0.777667,-9.528220,0.033903,-0.089492,-0.034361
5.662069,0.552742,0.762114,-9.554541,0.040928,-0.102167,-0.036499
5.669760,0.552742,0.762114,-9.541380,0.036499,-0.096364,-0.034208
5.677269,0.524028,0.742971,-9.541380,0.036499,-0.096364,-0.034208
5.684789,0.558724,0.759721,-9.518648,0.037263,-0.098197,-0.035888
5.693065,0.538385,0.745364,-9.530612,0.027947,-0.082467,-0.030849
5.701439,0.567099,0.770489,-9.533005,0.037110,-0.095600,-0.037874
5.709761,0.567099,0.770489,-9.542577,0.037721,-0.094226,-0.039248
5.718356,0.561117,0.763310,-9.542577,0.040470,-0.098655,-0.040012
5.726638,0.585045,0.766900,-9.524630,0.040470,-0.098655,-0.040012
5.735023,0.546760,0.756132,-9.521041,0.040164,-0.098807,-0.038485
5.743434,0.569492,0.751346,-9.553344,0.039095,-0.099571,-0.034819
5.751777,0.553938,0.769292,-9.559326,0.036346,-0.095906,-0.032834
5.760017,0.553938,0.747757,-9.533005,0.037110,-0.098502,-0.033292
5.768566,0.585045,0.747757,-9.533005,0.028711,-0.084299,-0.030238
5.777066,0.569492,0.738186,-9.570094,0.028711,-0.084299,-0.030238
5.785276,0.538385,0.741775,-9.555737,0.032834,-0.088423,-0.035736
5.793650,0.573081,0.758525,-9.531809,0.034667,-0.092088,-0.036805
5.801847,0.545564,0.766900,-9.538987,0.031918,-0.084910,-0.036652
5.810138,0.557528,0.774078,-9.566505,0.030543,-0.082620,-0.034056
5.818777,0.557528,0.774078,-9.566505,0.027184,-0.080787,-0.030696
5.827071,0.556331,0.771685,-9.555737,0.027184,-0.080787,-0.030696
5.835455,0.579063,0.766900,-9.572487,0.029932,-0.083230,-0.030849
5.843655,0.564706,0.781257,-9.528220,0.030391,-0.085216,-0.032223
5.851959,0.556331,0.760918,-9.512666,0.030849,-0.083841,-0.033598
5.860317,0.568295,0.774078,-9.529416,0.034819,-0.091172,-0.036957
5.868902,0.568295,0.774078,-9.529416,0.034667,-0.091935,-0.038943
5.877258,0.573081,0.759721,-9.523434,0.034667,-0.091935,-0.038943
5.885474,0.555135,0.765703,-9.538987,0.033445,-0.086132,-0.037568
5.893801,0.544367,0.763310,-9.564112,0.037721,-0.094531,-0.038179
5.902035,0.563510,0.758525,-9.521041,0.031918,-0.082925,-0.033292
5.910933,0.559920,0.757328,-9.573683,0.038637,-0.098655,-0.037415
5.919574,0.559920,0.753739,-9.594022,0.033292,-0.091783,-0.034208
5.927869,0.550349,0.753739,-9.594022,0.033292,-0.092546,-0.033903
5.936313,0.535992,0.744168,-9.592826,0.034056,-0.092546,-0.033903
5.944811,0.571885,0.745364,-9.546166,0.033139,-0.091324,-0.032223
5.953793,0.549153,0.753739,-9.543773,0.033292,-0.093462,-0.033598
5.962067,0.537189,0.763310,-9.553344,0.033139,-0.091324,-0.034667
5.970614,0.540778,0.769292,-9.535398,0.034514,-0.093921,-0.034208
5.979172,0.540778,0.769292,-9.597611,0.031918,-0.088270,-0.030238
5.987435,0.559920,0.752543,-9.597611,0.031918,-0.088270,-0.030849
5.995603,0.575474,0.766900,-9.555737,0.032529,-0.088575,-0.030849
6.003216,0.546760,0.766900,-9.568898,0.032223,-0.089797,-0.031918
6.010766,0.537189,0.765703,-9.530612,0.029169,-0.082772,-0.033139
6.018687,0.537189,0.765703,-9.530612,0.027642,-0.077885,-0.031918
6.026240,0.552742,0.759721,-9.559326,0.027642,-0.077885,-0.031918
6.033910,0.553938,0.775275,-9.558130,0.031765,-0.083841,-0.034819
6.041476,0.551546,0.775275,-9.543773,0.031765,-0.084605,-0.036499
6.049048,0.551546,0.775275,-9.565308,0.035583,-0.090103,-0.039095
6.056656,0.539581,0.783649,-9.565308,0.035583,-0.090103,-0.039095
6.064693,0.550349,0.777667,-9.573683,0.035430,-0.092852,-0.038026
6.072422,0.568295,0.768096,-9.560523,0.034514,-0.090408,-0.036194
6.080036,0.586242,0.750150,-9.553344,0.034208,-0.090103,-0.034819
6.088050,0.586242,0.750150,-9.553344,0.034056,-0.086590,-0.034667
6.096009,0.561117,0.747757,-9.534202,0.034056,-0.086590,-0.034667
6.104436,0.555135,0.756132,-9.531809,0.037415,-0.096211,-0.035430
6.112656,0.580259,0.746561,-9.537791,0.034056,-0.089644,-0.034667
6.121260,0.564706,0.768096,-9.585647,0.031154,-0.084605,-0.033139
6.129612,0.549153,0.750150,-9.527023,0.035125,-0.092852,-0.033750
6.137930,0.549153,0.750150,-9.527023,0.033598,-0.095753,-0.032529
6.146262,0.571885,0.736989,-9.538987,0.033598,-0.095753,-0.032529
6.154525,0.580259,0.735793,-9.549755,0.033445,-0.096975,-0.031918
6.163665,0.550349,0.733400,-9.577272,0.031460,-0.093921,-0.029627
6.173317,0.556331,0.734597,-9.549755,0.031612,-0.089950,-0.025656
6.183336,0.544367,0.754936,-9.516255,0.031001,-0.089339,-0.027794
6.192366,0.522832,0.780060,-9.529416,0.035736,-0.097280,-0.033445
6.199889,0.570688,0.786042,-9.594022,0.032223,-0.090561,-0.033139
6.206587,0.570688,0.786042,-9.594022,0.032223,-0.090561,-0.033139
6.212919,0.559920,0.808774,-9.562916,0.032834,-0.090561,-0.036194
6.219703,0.540778,0.823131,-9.516255,0.034056,-0.091935,-0.036957
6.226244,0.540778,0.823131,-9.516255,0.034056,-0.091935,-0.036957
6.232652,0.553938,0.819542,-9.535398,0.032070,-0.085979,-0.034514
6.238974,0.553938,0.819542,-9.540184,0.031765,-0.083383,-0.033139
6.246627,0.549153,0.805185,-9.540184,0.031765,-0.083383,-0.033139
6.253004,0.549153,0.768096,-9.543773,0.032376,-0.081703,-0.034514
6.259319,0.549153,0.764507,-9.536594,0.033445,-0.086590,-0.037263
6.265727,0.558724,0.764507,-9.536594,0.033445,-0.086590,-0.037263
6.272289,0.549153,0.753739,-9.553344,0.035125,-0.089797,-0.040775
6.278632,0.549153,0.753739,-9.553344,0.036194,-0.089186,-0.039706
6.285087,0.544367,0.740579,-9.577272,0.036194,-0.089186,-0.039706
6.291460,0.568295,0.734597,-9.574880,0.038790,-0.094531,-0.039554
6.298757,0.568295,0.734597,-9.548559,0.036499,-0.093921,-0.036805
6.307130,0.546760,0.717847,-9.548559,0.036499,-0.101709,-0.038332
6.315365,0.561117,0.717847,-9.555737,0.038943,-0.101709,-0.038332
6.324375,0.553938,0.717847,-9.565308,0.034819,-0.096669,-0.033292
6.332763,0.549153,0.708275,-9.550951,0.037415,-0.100640,-0.034056
6.341049,0.564706,0.744168,-9.538987,0.036957,-0.099266,-0.036805
6.350103,0.557528,0.763310,-9.558130,0.033445,-0.090713,-0.034514
6.358354,0.557528,0.763310,-9.558130,0.029474,-0.084299,-0.033750
6.366725,0.553938,0.768096,-9.522238,0.031612,-0.083994,-0.035888
6.376029,0.558724,0.802792,-9.542577,0.031612,-0.083994,-0.035888
6.384919,0.544367,0.787239,-9.533005,0.033750,-0.087354,-0.038943
6.393492,0.546760,0.803988,-9.544969,0.036499,-0.094531,-0.040623
6.401207,0.563510,0.802792,-9.553344,0.033292,-0.088117,-0.037874
6.409318,0.556331,0.806381,-9.541380,0.035125,-0.092088,-0.038179
6.416795,0.556331,0.806381,-9.541380,0.039095,-0.098502,-0.040012
6.424996,0.591027,0.756132,-9.523434,0.039095,-0.098502,-0.040012
6.433367,0.552742,0.750150,-9.540184,0.028100,-0.078802,-0.034361
6.441161,0.565903,0.753739,-9.561719,0.035736,-0.090866,-0.041692
6.448920,0.565903,0.752543,-9.552148,0.030391,-0.082772,-0.036652
6.456501,0.585045,0.752543,-9.552148,0.030391,-0.082772,-0.036652
6.464645,0.576670,0.732204,-9.534202,0.031918,-0.087048,-0.035736
6.473306,0.545564,0.729811,-9.586844,0.033139,-0.089950,-0.034819
6.480937,0.552742,0.697508,-9.533005,0.034056,-0.092852,-0.034514
6.489173,0.582652,0.714258,-9.559326,0.035430,-0.097433,-0.035430
6.496775,0.582652,0.714258,-9.559326,0.035430,-0.097433,-0.030085
6.504293,0.570688,0.720240,-9.542577,0.026573,-0.084147,-0.030085
6.511868,0.573081,0.736989,-9.576076,0.031460,-0.091172,-0.033445
6.519431,0.557528,0.728614,-9.562916,0.034208,-0.093310,-0.035736
6.527209,0.557528,0.728614,-9.562916,0.034361,-0.092546,-0.034514
6.534829,0.535992,0.744168,-9.564112,0.034361,-0.092546,-0.034514
6.542324,0.528814,0.754936,-9.531809,0.037263,-0.100487,-0.036499
6.549845,0.568295,0.758525,-9.552148,0.038637,-0.101709,-0.037263
6.557443,0.568295,0.758525,-9.552148,0.034056,-0.093157,-0.034514
6.564891,0.585045,0.798006,-9.535398,0.034056,-0.093157,-0.034514
6.572597,0.553938,0.782453,-9.501899,0.035277,-0.091783,-0.037874
6.580168,0.531207,0.809970,-9.547362,0.035888,-0.094073,-0.039095
6.587623,0.531207,0.809970,-9.547362,0.030085,-0.082925,-0.036805
6.595341,0.538385,0.792024,-9.549755,0.030085,-0.082925,-0.036805
6.603392,0.559920,0.793221,-9.510273,0.037415,-0.092088,-0.042150
6.611701,0.564706,0.813560,-9.521041,0.038332,-0.092546,-0.041539
6.620135,0.570688,0.784846,-9.518648,0.036957,-0.093921,-0.039248
6.628644,0.555135,0.787239,-9.604790,0.039554,-0.095142,-0.039248
6.637040,0.555135,0.787239,-9.604790,0.032834,-0.084910,-0.033598
6.645276,0.518046,0.752543,-9.547362,0.032834,-0.084910,-0.033598
6.653688,0.516850,0.754936,-9.527023,0.033598,-0.089492,-0.035125
6.662059,0.553938,0.741775,-9.568898,0.036652,-0.092852,-0.037263
6.670445,0.555135,0.714258,-9.515059,0.032070,-0.081092,-0.034819
6.680516,0.521635,0.774078,-9.530612,0.032223,-0.082620,-0.036957
6.689258,0.539581,0.760918,-9.536594,0.038943,-0.094990,-0.040470
6.697842,0.539581,0.760918,-9.536594,0.039248,-0.096211,-0.039401
6.705359,0.569492,0.759721,-9.541380,0.039248,-0.096211,-0.039401
6.712863,0.564706,0.771685,-9.558130,0.037721,-0.093615,-0.037415
6.720414,0.589831,0.778864,-9.556933,0.034056,-0.090103,-0.034514
6.728101,0.589831,0.778864,-9.558130,0.033598,-0.087506,-0.036194
6.735713,0.579063,0.756132,-9.558130,0.033598,-0.087506,-0.036194
6.743224,0.543171,0.770489,-9.550951,0.033445,-0.087812,-0.035125
6.750712,0.547956,0.769292,-9.538987,0.029780,-0.081703,-0.032681
6.758284,0.547956,0.746561,-9.511470,0.024740,-0.075747,-0.029780
6.765805,0.567099,0.746561,-9.511470,0.024740,-0.075747,-0.029780
6.773465,0.549153,0.747757,-9.548559,0.032223,-0.086437,-0.035430
6.781194,0.532403,0.735793,-9.523434,0.036957,-0.096669,-0.035736
6.788665,0.570688,0.720240,-9.598808,0.035888,-0.095906,-0.035125
6.796266,0.570688,0.720240,-9.598808,0.035888,-0.095906,-0.035430
6.804358,0.555135,0.735793,-9.550951,0.037415,-0.096364,-0.035430
6.812544,0.539581,0.764507,-9.556933,0.036499,-0.096364,-0.035583
6.820988,0.556331,0.738186,-9.540184,0.037415,-0.098349,-0.035888
6.829441,0.559920,0.747757,-9.524630,0.031612,-0.087812,-0.032834
6.837775,0.559920,0.747757,-9.525827,0.035736,-0.098197,-0.036805
6.847075,0.568295,0.748953,-9.525827,0.027489,-0.082314,-0.029627
6.855800,0.585045,0.782453,-9.566505,0.027489,-0.082314,-0.034667
6.864158,0.531207,0.742971,-9.493524,0.036499,-0.094226,-0.034667
6.872776,0.532403,0.778864,-9.524630,0.040623,-0.103389,-0.035430
6.881583,0.555135,0.760918,-9.571290,0.030543,-0.086285,-0.031154
6.889827,0.540778,0.747757,-9.564112,0.030391,-0.085368,-0.031460
6.898291,0.574277,0.770489,-9.525827,0.032223,-0.089797,-0.034972
6.905986,0.574277,0.770489,-9.525827,0.032223,-0.089797,-0.036499
6.913451,0.550349,0.759721,-9.528220,0.032376,-0.085216,-0.036499
6.921110,0.581456,0.759721,-9.519845,0.033903,-0.087201,-0.037874
6.928922,0.564706,0.781257,-9.586844,0.026420,-0.076511,-0.033598
6.936413,0.564706,0.781257,-9.586844,0.026420,-0.079565,-0.035430
6.944052,0.561117,0.752543,-9.572487,0.028558,-0.079565,-0.035430
6.951519,0.585045,0.735793,-9.546166,0.037263,-0.094379,-0.038332
6.959117,0.549153,0.733400,-9.525827,0.033750,-0.090255,-0.035430
6.966690,0.549153,0.733400,-9.525827,0.034819,-0.095600,-0.035736
6.974316,0.573081,0.731007,-9.536594,0.034819,-0.095600,-0.035736
6.981997,0.573081,0.731007,-9.558130,0.025962,-0.079565,-0.029016
6.989466,0.552742,0.697508,-9.536594,0.031918,-0.091783,-0.030849
6.996918,0.552742,0.697508,-9.536594,0.030238,-0.089644,-0.031307
7.005286,0.547956,0.751346,-9.584451,0.030238,-0.089644,-0.031307
7.013488,0.553938,0.753739,-9.555737,0.031307,-0.092699,-0.027947
7.021744,0.545564,0.757328,-9.536594,0.032987,-0.095906,-0.029016
7.030647,0.563510,0.769292,-9.559326,0.032376,-0.090103,-0.027031
7.038969,0.569492,0.781257,-9.549755,0.033750,-0.093310,-0.032681
7.047276,0.569492,0.781257,-9.571290,0.034361,-0.093615,-0.034056
7.055715,0.550349,0.766900,-9.571290,0.034361,-0.088575,-0.037110
7.064080,0.530010,0.803988,-9.546166,0.033445,-0.088575,-0.037110
7.072311,0.544367,0.813560,-9.556933,0.037263,-0.093004,-0.043371
7.080928,0.552742,0.829113,-9.513863,0.036805,-0.091172,-0.042761
7.089251,0.550349,0.814756,-9.534202,0.037721,-0.093310,-0.044135
7.097482,0.550349,0.814756,-9.556933,0.040470,-0.096517,-0.042913
7.105820,0.575474,0.806381,-9.556933,0.040470,-0.086285,-0.038485
7.114038,0.563510,0.786042,-9.504291,0.035430,-0.086285,-0.038485
7.122423,0.550349,0.771685,-9.536594,0.032529,-0.087506,-0.035125
7.131044,0.552742,0.748953,-9.535398,0.032529,-0.086132,-0.033903
7.139307,0.531207,0.734597,-9.556933,0.030849,-0.083230,-0.034667
7.148304,0.559920,0.719043,-9.536594,0.032987,-0.087048,-0.039554
7.156725,0.559920,0.719043,-9.536594,0.032681,-0.080940,-0.040470
7.165116,0.543171,0.709472,-9.506684,0.032681,-0.093615,-0.045051
7.174322,0.546760,0.731007,-9.530612,0.038790,-0.093615,-0.045051
7.182898,0.564706,0.734597,-9.550951,0.040928,-0.097738,-0.046731
7.191315,0.571885,0.720240,-9.542577,0.034361,-0.088575,-0.040470
7.199550,0.582652,0.723829,-9.541380,0.039859,-0.099724,-0.040928
7.208333,0.569492,0.717847,-9.518648,0.040775,-0.102167,-0.039248
7.217452,0.569492,0.740579,-9.574880,0.038485,-0.099571,-0.037263
7.233307,0.553938,0.741775,-9.540184,0.033903,-0.092393,-0.034361
7.242984,0.573081,0.744168,-9.524630,0.035277,-0.095295,-0.035125
7.252940,0.577867,0.753739,-9.565308,0.038943,-0.103084,-0.036805
7.261772,0.576670,0.747757,-9.596415,0.033598,-0.091019,-0.034514
7.270249,0.553938,0.771685,-9.558130,0.034361,-0.089034,-0.034056
7.278737,0.543171,0.760918,-9.540184,0.035430,-0.094226,-0.034972
7.287276,0.543171,0.748953,-9.529416,0.034819,-0.094226,-0.033903
7.295614,0.581456,0.748953,-9.529416,0.037110,-0.098197,-0.034208
7.303452,0.541974,0.739382,-9.560523,0.037110,-0.098197,-0.034208
7.309590,0.541974,0.760918,-9.533005,0.035125,-0.095906,-0.033292
7.315500,0.541974,0.760918,-9.533005,0.035125,-0.095906,-0.033292
7.321356,0.570688,0.750150,-9.547362,0.037110,-0.097280,-0.033445
7.327363,0.570688,0.768096,-9.527023,0.032223,-0.089339,-0.031154
7.333349,0.549153,0.768096,-9.527023,0.032223,-0.089339,-0.031154
7.339319,0.545564,0.762114,-9.527023,0.032376,-0.092241,-0.033903
7.345324,0.545564,0.762114,-9.527023,0.032376,-0.092241,-0.033903
7.351365,0.545564,0.774078,-9.559326,0.033903,-0.091935,-0.036041
7.357223,0.545564,0.774078,-9.598808,0.034972,-0.093768,-0.036499
7.363085,0.563510,0.796810,-9.598808,0.034972,-0.093768,-0.036499
7.369126,0.570688,0.789631,-9.559326,0.032376,-0.088117,-0.032834
7.374990,0.570688,0.789631,-9.559326,0.032376,-0.088117,-0.032834
7.381086,0.593420,0.752543,-9.521041,0.033598,-0.091783,-0.032070
7.387066,0.593420,0.752543,-9.524630,0.033445,-0.095600,-0.032376
7.393068,0.556331,0.770489,-9.524630,0.033445,-0.095600,-0.032376
7.398919,0.570688,0.736989,-9.601201,0.033445,-0.091019,-0.032070
7.405968,0.570688,0.736989,-9.601201,0.031154,-0.088423,-0.031307
7.414304,0.532403,0.759721,-9.586844,0.031154,-0.088423,-0.031307
7.422517,0.559920,0.766900,-9.534202,0.032987,-0.091172,-0.033292
7.431184,0.581456,0.759721,-9.556933,0.033445,-0.088881,-0.034056
7.439557,0.555135,0.776471,-9.535398,0.028405,-0.084910,-0.032376
7.447895,0.564706,0.759721,-9.547362,0.032223,-0.088423,-0.035125
7.456201,0.564706,0.759721,-9.547362,0.032681,-0.087812,-0.034972
7.464429,0.574277,0.783649,-9.565308,0.032681,-0.087812,-0.034972
7.472838,0.569492,0.772882,-9.554541,0.035736,-0.094531,-0.035888
7.481584,0.577867,0.769292,-9.528220,0.038332,-0.098502,-0.038026
7.490062,0.579063,0.769292,-9.549755,0.034667,-0.089186,-0.035125
7.498483,0.555135,0.763310,-9.549755,0.031154,-0.085063,-0.033598
7.506752,0.555135,0.763310,-9.533005,0.026725,-0.078191,-0.032070
7.515083,0.580259,0.771685,-9.533005,0.026725,-0.085827,-0.035277
7.523349,0.537189,0.782453,-9.568898,0.030543,-0.085827,-0.035277
7.531701,0.567099,0.746561,-9.513863,0.034972,-0.092699,-0.037415
7.540128,0.583849,0.753739,-9.536594,0.033903,-0.091630,-0.036499
7.548445,0.573081,0.753739,-9.572487,0.033903,-0.091477,-0.036041
7.556794,0.573081,0.736989,-9.544969,0.030238,-0.086132,-0.031612
7.565053,0.538385,0.736989,-9.544969,0.030238,-0.100487,-0.035277
7.573529,0.565903,0.731007,-9.504291,0.036652,-0.100487,-0.035277
7.581942,0.543171,0.733400,-9.546166,0.035430,-0.098197,-0.033292
7.590384,0.552742,0.746561,-9.555737,0.035583,-0.095295,-0.034208
7.598694,0.545564,0.759721,-9.559326,0.032681,-0.090255,-0.033292
7.607044,0.538385,0.763310,-9.578469,0.036957,-0.094837,-0.038943
7.616053,0.538385,0.763310,-9.578469,0.035888,-0.091477,-0.038790
7.624338,0.576670,0.751346,-9.552148,0.035888,-0.091477,-0.038790
7.632808,0.559920,0.735793,-9.501899,0.037721,-0.094226,-0.040317
7.641406,0.563510,0.772882,-9.529416,0.036957,-0.093462,-0.038637
7.649665,0.558724,0.756132,-9.541380,0.033445,-0.088117,-0.034667
7.658035,0.616152,0.766900,-9.572487,0.035583,-0.093004,-0.033445
7.666348,0.616152,0.766900,-9.516255,0.036805,-0.099113,-0.033750
7.674725,0.545564,0.747757,-9.516255,0.036805,-0.092699,-0.034514
7.683167,0.570688,0.748953,-9.516255,0.033598,-0.092699,-0.034514
7.691711,0.525225,0.760918,-9.529416,0.032223,-0.089797,-0.035430
7.700262,0.544367,0.756132,-9.560523,0.035583,-0.096059,-0.037415
7.708362,0.570688,0.775275,-9.552148,0.027947,-0.080481,-0.032529
7.716099,0.570688,0.775275,-9.552148,0.037721,-0.095753,-0.038790
7.723635,0.549153,0.788435,-9.519845,0.037721,-0.095753,-0.038790
7.731190,0.551546,0.765703,-9.554541,0.037568,-0.098960,-0.038943
7.739007,0.551546,0.753739,-9.558130,0.031154,-0.088117,-0.031307
7.746882,0.562313,0.778864,-9.540184,0.032681,-0.089644,-0.031460
7.755168,0.562313,0.778864,-9.540184,0.031307,-0.084299,-0.027642
7.762958,0.570688,0.787239,-9.553344,0.031307,-0.084299,-0.027642
7.770439,0.520439,0.762114,-9.521041,0.034819,-0.093921,-0.031765
7.778195,0.555135,0.764507,-9.540184,0.035888,-0.095600,-0.034819
7.786637,0.555135,0.770489,-9.552148,0.029627,-0.085979,-0.029780
7.794820,0.567099,0.770489,-9.552148,0.029627,-0.079107,-0.028558
7.802507,0.557528,0.765703,-9.578469,0.026267,-0.079107,-0.028558
7.809995,0.574277,0.765703,-9.543773,0.025962,-0.076816,-0.028863
7.817636,0.562313,0.783649,-9.555737,0.032376,-0.086437,-0.033750
7.825160,0.562313,0.783649,-9.555737,0.026878,-0.080481,-0.028558
7.833236,0.530010,0.763310,-9.560523,0.026878,-0.080481,-0.028558
7.841134,0.541974,0.769292,-9.519845,0.028711,-0.085827,-0.028863
7.848703,0.559920,0.745364,-9.548559,0.028558,-0.086437,-0.029627
7.856264,0.559920,0.745364,-9.509077,0.033598,-0.093157,-0.030696
7.863826,0.552742,0.745364,-9.509077,0.033598,-0.093157,-0.030696
7.871325,0.553938,0.757328,-9.554541,0.035736,-0.097128,-0.029627
7.878902,0.540778,0.756132,-9.544969,0.032529,-0.094531,-0.028253
7.886666,0.551546,0.769292,-9.562916,0.031918,-0.091324,-0.027336
7.894272,0.551546,0.769292,-9.562916,0.031918,-0.091324,-0.026573
7.901870,0.527617,0.765703,-9.554541,0.026878,-0.080787,-0.026573
7.909886,0.549153,0.750150,-9.500702,0.030238,-0.085521,-0.028711
7.918166,0.552742,0.776471,-9.548559,0.032681,-0.090408,-0.033903
7.926454,0.558724,0.768096,-9.536594,0.035125,-0.092699,-0.035430
7.935076,0.558724,0.768096,-9.536594,0.030391,-0.084605,-0.031154
7.944294,0.575474,0.776471,-9.555737,0.030391,-0.080634,-0.028100
7.952706,0.549153,0.778864,-9.516255,0.028253,-0.080634,-0.028100
7.961061,0.573081,0.784846,-9.549755,0.032376,-0.089186,-0.032070
7.969337,0.541974,0.787239,-9.600004,0.032834,-0.088575,-0.034208
7.977545,0.551546,0.799203,-9.541380,0.034056,-0.089950,-0.035430
7.986100,0.551546,0.776471,-9.517452,0.040012,-0.100029,-0.039859
7.994517,0.546760,0.776471,-9.517452,0.034514,-0.087201,-0.038790
8.003519,0.576670,0.771685,-9.524630,0.034514,-0.087201,-0.038790
8.011613,0.559920,0.765703,-9.515059,0.037568,-0.093615,-0.043677
8.019092,0.544367,0.733400,-9.540184,0.038485,-0.096211,-0.041233
8.026669,0.549153,0.733400,-9.574880,0.039859,-0.096669,-0.041081
8.034258,0.549153,0.733400,-9.574880,0.039859,-0.091783,-0.036805
8.042007,0.555135,0.739382,-9.535398,0.036499,-0.091783,-0.036805
8.050020,0.556331,0.748953,-9.556933,0.032987,-0.088575,-0.036499
8.058010,0.565903,0.728614,-9.561719,0.027031,-0.082467,-0.031612
8.065603,0.565903,0.728614,-9.561719,0.025504,-0.076205,-0.031612
8.073062,0.545564,0.750150,-9.556933,0.025504,-0.076205,-0.031612
8.080525,0.577867,0.758525,-9.515059,0.030391,-0.079871,-0.035736
8.088331,0.556331,0.769292,-9.548559,0.029627,-0.083536,-0.035888
8.095928,0.556331,0.789631,-9.595219,0.031612,-0.084758,-0.035583
8.103478,0.537189,0.789631,-9.595219,0.031612,-0.084758,-0.035583
8.111061,0.535992,0.766900,-9.559326,0.035430,-0.092546,-0.035736
8.118525,0.555135,0.794417,-9.580862,0.038179,-0.098655,-0.040012
8.126100,0.555135,0.801596,-9.579665,0.034972,-0.093310,-0.036499
8.133615,0.545564,0.801596,-9.579665,0.038637,-0.093768,-0.038943
8.142151,0.552742,0.774078,-9.540184,0.038637,-0.093768,-0.038943
8.149795,0.552742,0.770489,-9.541380,0.031307,-0.082161,-0.034972
8.157290,0.552742,0.777667,-9.541380,0.031154,-0.080023,-0.035736
8.164845,0.552742,0.777667,-9.541380,0.030543,-0.081703,-0.034056
8.173186,0.565903,0.765703,-9.538987,0.030543,-0.081703,-0.034056
8.180840,0.552742,0.742971,-9.546166,0.037721,-0.093768,-0.039248
8.188896,0.540778,0.740579,-9.577272,0.034819,-0.088575,-0.036346
8.196541,0.551546,0.731007,-9.555737,0.029627,-0.083689,-0.030238
8.204153,0.551546,0.731007,-9.555737,0.029627,-0.092393,-0.032376
8.212015,0.538385,0.740579,-9.561719,0.033139,-0.092393,-0.032376
8.220255,0.557528,0.725025,-9.588040,0.037721,-0.101709,-0.035736
8.228704,0.557528,0.738186,-9.552148,0.038637,-0.100029,-0.036194
8.237184,0.552742,0.789631,-9.537791,0.041233,-0.103542,-0.036346
8.249009,0.552742,0.775275,-9.544969,0.029322,-0.085368,-0.028100
8.258409,0.579063,0.747757,-9.552148,0.029016,-0.087354,-0.033292
8.267759,0.516850,0.776471,-9.547362,0.030085,-0.085979,-0.032376
8.277237,0.559920,0.774078,-9.524630,0.037263,-0.095295,-0.031154
8.287031,0.574277,0.775275,-9.540184,0.034208,-0.089797,-0.030085
8.296130,0.575474,0.792024,-9.535398,0.032987,-0.092546,-0.033903
8.304744,0.575474,0.792024,-9.535398,0.035430,-0.094073,-0.035430
8.312398,0.513260,0.762114,-9.566505,0.035430,-0.094073,-0.035430
8.316524,0.534796,0.769292,-9.518648,0.039554,-0.098807,-0.038790
8.320627,0.534796,0.769292,-9.518648,0.039554,-0.098807,-0.038790
8.324713,0.534796,0.769292,-9.518648,0.039554,-0.098807,-0.038790
8.328855,0.593420,0.756132,-9.504291,0.034667,-0.090866,-0.034514
8.333050,0.593420,0.756132,-9.504291,0.034667,-0.090866,-0.034514
8.337245,0.564706,0.741775,-9.522238,0.032223,-0.089950,-0.033750
8.341474,0.564706,0.741775,-9.522238,0.032223,-0.089950,-0.033750
8.345691,0.564706,0.741775,-9.522238,0.032376,-0.089492,-0.031001
8.349870,0.526421,0.736989,-9.555737,0.032376,-0.089492,-0.031001
8.354350,0.526421,0.736989,-9.555737,0.032376,-0.089492,-0.031001
8.358512,0.537189,0.751346,-9.559326,0.034208,-0.093157,-0.031765
8.362598,0.537189,0.751346,-9.559326,0.034208,-0.093157,-0.031765
8.366671,0.577867,0.725025,-9.535398,0.034819,-0.094684,-0.031460
8.370820,0.577867,0.725025,-9.535398,0.034819,-0.094684,-0.031460
8.374951,0.577867,0.725025,-9.535398,0.034819,-0.096364,-0.035277
8.379110,0.549153,0.757328,-9.574880,0.037263,-0.096364,-0.035277
8.383201,0.549153,0.757328,-9.574880,0.037263,-0.096364,-0.035277
8.387387,0.552742,0.776471,-9.586844,0.036346,-0.095753,-0.036652
8.391712,0.552742,0.776471,-9.586844,0.036346,-0.095753,-0.036652
8.395974,0.552742,0.775275,-9.530612,0.036805,-0.096364,-0.038332
8.400122,0.570688,0.775275,-9.530612,0.036805,-0.096364,-0.038332
8.404212,0.570688,0.775275,-9.530612,0.036805,-0.096364,-0.038332
8.408300,0.538385,0.774078,-9.572487,0.032070,-0.086132,-0.034819
8.412487,0.538385,0.774078,-9.572487,0.032070,-0.086132,-0.034819
8.416584,0.564706,0.786042,-9.588040,0.034514,-0.089950,-0.035736
8.420682,0.564706,0.786042,-9.588040,0.034514,-0.089950,-0.035736
8.424762,0.564706,0.786042,-9.588040,0.034514,-0.089950,-0.036805
8.428884,0.571885,0.768096,-9.546166,0.034514,-0.088881,-0.036805
8.433228,0.571885,0.768096,-9.546166,0.034514,-0.088881,-0.036805
8.437434,0.553938,0.766900,-9.522238,0.033292,-0.085979,-0.035736
8.441758,0.553938,0.766900,-9.522238,0.033292,-0.085979,-0.035736
8.445934,0.559920,0.745364,-9.553344,0.032834,-0.089797,-0.034514
8.450076,0.559920,0.745364,-9.553344,0.032834,-0.089797,-0.034514
8.454303,0.559920,0.745364,-9.553344,0.032834,-0.089797,-0.034514
8.458420,0.531207,0.741775,-9.583255,0.036805,-0.095142,-0.036499
8.462518,0.531207,0.741775,-9.583255,0.036805,-0.095142,-0.036499
8.466601,0.549153,0.733400,-9.540184,0.032223,-0.088117,-0.034361
8.470745,0.549153,0.733400,-9.540184,0.032223,-0.088117,-0.034361
8.474903,0.549153,0.733400,-9.540184,0.032223,-0.085979,-0.034208
8.479499,0.567099,0.756132,-9.546166,0.031001,-0.085979,-0.034208
8.483775,0.567099,0.756132,-9.546166,0.031001,-0.085979,-0.034208
8.488317,0.568295,0.762114,-9.547362,0.035125,-0.091019,-0.037263
8.492763,0.568295,0.762114,-9.547362,0.035125,-0.091019,-0.037263
8.496961,0.562313,0.781257,-9.516255,0.037874,-0.093462,-0.038943
8.501110,0.562313,0.781257,-9.516255,0.037874,-0.093462,-0.038943
8.505244,0.562313,0.781257,-9.516255,0.031765,-0.085674,-0.034361
8.509361,0.540778,0.772882,-9.568898,0.031765,-0.085674,-0.034361
8.513547,0.540778,0.772882,-9.568898,0.031765,-0.085674,-0.034361
8.517653,0.568295,0.762114,-9.577272,0.032376,-0.084910,-0.034056
8.521770,0.568295,0.762114,-9.577272,0.032376,-0.084910,-0.034056
8.525867,0.595813,0.775275,-9.550951,0.036957,-0.092393,-0.037721
8.529978,0.595813,0.775275,-9.550951,0.036957,-0.092393,-0.037721
8.534166,0.595813,0.775275,-9.550951,0.036957,-0.092393,-0.037721
8.538364,0.546760,0.759721,-9.579665,0.040775,-0.100335,-0.039554
8.542595,0.546760,0.759721,-9.579665,0.040775,-0.100335,-0.039554
8.546786,0.530010,0.775275,-9.540184,0.031001,-0.083078,-0.031307
8.550932,0.530010,0.775275,-9.540184,0.031001,-0.083078,-0.031307
8.555485,0.530010,0.775275,-9.538987,0.032529,-0.085368,-0.032681
8.559614,0.561117,0.734597,-9.538987,0.032529,-0.085368,-0.032681
8.563715,0.561117,0.734597,-9.538987,0.032529,-0.085368,-0.032681
8.567823,0.531207,0.750150,-9.533005,0.036194,-0.092241,-0.036499
8.571959,0.531207,0.750150,-9.533005,0.036194,-0.092241,-0.036499
8.576126,0.567099,0.763310,-9.516255,0.040164,-0.101556,-0.041081
8.580236,0.567099,0.763310,-9.516255,0.040164,-0.101556,-0.041081
8.584341,0.567099,0.763310,-9.516255,0.040164,-0.101556,-0.041081
8.588588,0.553938,0.753739,-9.494720,0.035430,-0.092088,-0.038179
8.592866,0.553938,0.753739,-9.494720,0.035430,-0.092088,-0.038179
8.597124,0.561117,0.774078,-9.518648,0.032376,-0.087354,-0.035736
8.601239,0.561117,0.774078,-9.518648,0.032376,-0.087354,-0.035736
8.605332,0.561117,0.774078,-9.479167,0.033139,-0.088117,-0.033750
8.609425,0.543171,0.762114,-9.479167,0.033139,-0.088117,-0.033750
8.613584,0.543171,0.762114,-9.479167,0.033139,-0.088117,-0.033750
8.617762,0.553938,0.747757,-9.552148,0.030849,-0.083994,-0.030696
8.621856,0.553938,0.747757,-9.552148,0.030849,-0.083994,-0.030696
8.625950,0.571885,0.739382,-9.559326,0.033750,-0.094837,-0.035736
8.630050,0.571885,0.739382,-9.559326,0.033750,-0.094837,-0.035736
8.634201,0.571885,0.739382,-9.559326,0.033750,-0.094837,-0.035736
8.638435,0.555135,0.738186,-9.510273,0.036499,-0.097128,-0.037568
8.642807,0.555135,0.738186,-9.510273,0.036499,-0.097128,-0.037568
8.647485,0.569492,0.732204,-9.534202,0.038637,-0.101251,-0.037263
8.651671,0.569492,0.732204,-9.534202,0.038637,-0.101251,-0.037263
8.655924,0.545564,0.726222,-9.558130,0.032376,-0.088117,-0.034667
8.660069,0.545564,0.726222,-9.558130,0.032376,-0.088117,-0.034667
8.664211,0.545564,0.726222,-9.558130,0.032376,-0.088117,-0.034667
8.668314,0.538385,0.770489,-9.607183,0.030849,-0.084452,-0.032681
8.672412,0.538385,0.770489,-9.607183,0.030849,-0.084452,-0.032681
8.676659,0.559920,0.768096,-9.549755,0.028711,-0.081703,-0.033750
8.680783,0.559920,0.768096,-9.549755,0.028711,-0.081703,-0.033750
8.684865,0.559920,0.768096,-9.549755,0.032529,-0.088728,-0.037721
8.689126,0.543171,0.762114,-9.521041,0.032529,-0.088728,-0.037721
8.693420,0.543171,0.762114,-9.521041,0.032529,-0.088728,-0.037721
8.697644,0.561117,0.784846,-9.556933,0.036805,-0.093921,-0.036805
8.701762,0.561117,0.784846,-9.556933,0.036805,-0.093921,-0.036805
8.706050,0.577867,0.764507,-9.544969,0.038026,-0.096211,-0.036346
8.710174,0.577867,0.764507,-9.544969,0.038026,-0.096211,-0.036346
8.714305,0.577867,0.764507,-9.544969,0.038026,-0.096211,-0.031918
8.718503,0.561117,0.753739,-9.542577,0.035277,-0.094226,-0.031918
8.722593,0.561117,0.753739,-9.542577,0.035277,-0.094226,-0.031918
8.726665,0.562313,0.766900,-9.536594,0.034056,-0.093768,-0.029016
8.730780,0.562313,0.766900,-9.536594,0.034056,-0.093768,-0.029016
8.734934,0.562313,0.766900,-9.536594,0.033139,-0.092393,-0.029627
8.739192,0.546760,0.750150,-9.525827,0.033139,-0.092393,-0.029627
8.743477,0.546760,0.750150,-9.525827,0.033139,-0.092393,-0.029627
8.747681,0.571885,0.751346,-9.584451,0.036346,-0.094990,-0.031918
8.751822,0.571885,0.751346,-9.584451,0.036346,-0.094990,-0.031918
8.756346,0.587438,0.740579,-9.540184,0.034514,-0.091630,-0.031765
8.760507,0.587438,0.740579,-9.540184,0.034514,-0.091630,-0.031765
8.764649,0.587438,0.740579,-9.540184,0.034361,-0.093615,-0.032529
8.768742,0.543171,0.759721,-9.535398,0.034361,-0.093615,-0.032529
8.772820,0.543171,0.759721,-9.535398,0.034361,-0.093615,-0.032529
8.777036,0.591027,0.762114,-9.578469,0.035736,-0.092393,-0.034514
8.781152,0.591027,0.762114,-9.578469,0.035736,-0.092393,-0.034514
8.785239,0.591027,0.747757,-9.554541,0.033445,-0.092546,-0.034361
8.789419,0.551546,0.747757,-9.554541,0.033445,-0.092546,-0.034361
8.793700,0.551546,0.747757,-9.554541,0.033445,-0.092546,-0.034361
8.797941,0.574277,0.762114,-9.549755,0.031154,-0.091630,-0.030543
8.802054,0.574277,0.762114,-9.549755,0.031154,-0.091630,-0.030543
8.806144,0.587438,0.748953,-9.556933,0.033750,-0.093310,-0.030391
8.810237,0.587438,0.748953,-9.556933,0.033750,-0.093310,-0.030391
8.814314,0.587438,0.748953,-9.556933,0.033750,-0.093462,-0.030391
8.818552,0.585045,0.757328,-9.568898,0.032987,-0.093462,-0.030391
8.822669,0.585045,0.757328,-9.568898,0.032987,-0.093462,-0.030391
8.826769,0.521635,0.732204,-9.543773,0.036194,-0.095753,-0.034514
8.830868,0.521635,0.732204,-9.543773,0.036194,-0.095753,-0.034514
8.834953,0.521635,0.732204,-9.573683,0.036041,-0.095753,-0.034056
8.839256,0.555135,0.747757,-9.573683,0.036041,-0.095753,-0.034056
8.843565,0.555135,0.747757,-9.573683,0.036041,-0.095753,-0.034056
8.847806,0.563510,0.782453,-9.542577,0.037415,-0.096822,-0.036499
8.851919,0.563510,0.782453,-9.542577,0.037415,-0.096822,-0.036499
8.856057,0.598206,0.777667,-9.518648,0.032529,-0.086896,-0.033292
8.860230,0.598206,0.777667,-9.518648,0.032529,-0.086896,-0.033292
8.864342,0.598206,0.777667,-9.518648,0.027184,-0.079107,-0.031460
8.868428,0.545564,0.752543,-9.525827,0.027184,-0.079107,-0.031460
8.872510,0.545564,0.752543,-9.525827,0.027184,-0.079107,-0.031460
8.876659,0.553938,0.787239,-9.513863,0.030238,-0.079260,-0.033750
8.880806,0.553938,0.787239,-9.513863,0.030238,-0.079260,-0.033750
8.884910,0.553938,0.787239,-9.560523,0.033598,-0.090408,-0.038179
8.889035,0.556331,0.764507,-9.560523,0.033598,-0.090408,-0.038179
8.893353,0.556331,0.764507,-9.560523,0.033598,-0.090408,-0.038179
8.897544,0.550349,0.746561,-9.547362,0.034208,-0.089950,-0.037263
8.901727,0.550349,0.746561,-9.547362,0.034208,-0.089950,-0.037263
8.905827,0.556331,0.750150,-9.536594,0.033750,-0.086743,-0.035736
8.909920,0.556331,0.750150,-9.536594,0.033750,-0.086743,-0.035736
8.914011,0.556331,0.750150,-9.536594,0.033750,-0.086743,-0.034361
8.918227,0.545564,0.734597,-9.521041,0.032834,-0.088575,-0.034361
8.922339,0.545564,0.734597,-9.521041,0.032834,-0.088575,-0.034361
8.926435,0.546760,0.759721,-9.601201,0.033598,-0.086743,-0.038332
8.930543,0.546760,0.759721,-9.601201,0.033598,-0.086743,-0.038332
8.934621,0.546760,0.759721,-9.601201,0.038179,-0.092546,-0.042608
8.938816,0.575474,0.750150,-9.535398,0.038179,-0.092546,-0.042608
8.943179,0.575474,0.750150,-9.535398,0.038179,-0.092546,-0.042608
8.947993,0.562313,0.734597,-9.552148,0.035888,-0.092241,-0.040317
8.952158,0.562313,0.734597,-9.552148,0.035888,-0.092241,-0.040317
8.956621,0.564706,0.741775,-9.564112,0.037721,-0.095295,-0.040623
8.960836,0.564706,0.741775,-9.564112,0.037721,-0.095295,-0.040623
8.964929,0.564706,0.751346,-9.548559,0.032223,-0.085979,-0.036805
8.969084,0.539581,0.751346,-9.548559,0.032223,-0.085979,-0.036805
8.973165,0.539581,0.751346,-9.548559,0.032223,-0.085979,-0.036805
8.977298,0.543171,0.754936,-9.556933,0.039554,-0.097128,-0.041386
8.981630,0.543171,0.754936,-9.556933,0.039554,-0.097128,-0.041386
8.985724,0.550349,0.766900,-9.529416,0.034819,-0.091630,-0.036652
8.989815,0.550349,0.766900,-9.529416,0.034819,-0.091630,-0.036652
8.994103,0.550349,0.766900,-9.529416,0.037874,-0.095600,-0.039248
8.998394,0.558724,0.763310,-9.504291,0.037874,-0.095600,-0.039248
9.002537,0.558724,0.763310,-9.504291,0.037874,-0.095600,-0.039248
9.006628,0.564706,0.775275,-9.550951,0.033445,-0.087965,-0.037874
9.010730,0.564706,0.775275,-9.550951,0.033445,-0.087965,-0.037874
9.014917,0.564706,0.774078,-9.562916,0.034208,-0.089339,-0.040317
9.022884,0.530010,0.774078,-9.562916,0.034667,-0.089034,-0.040623
9.031187,0.556331,0.774078,-9.589237,0.034667,-0.089034,-0.040623
9.039461,0.598206,0.752543,-9.548559,0.034056,-0.090103,-0.036499
9.048029,0.540778,0.760918,-9.556933,0.031460,-0.085674,-0.034667
9.056328,0.549153,0.732204,-9.556933,0.032223,-0.085216,-0.034972
9.064664,0.549153,0.731007,-9.544969,0.035125,-0.093768,-0.036346
9.072924,0.549153,0.731007,-9.544969,0.039706,-0.102625,-0.040775
9.081262,0.535992,0.741775,-9.527023,0.039706,-0.102625,-0.040775
9.089576,0.565903,0.741775,-9.540184,0.036652,-0.099266,-0.038179
9.098079,0.538385,0.752543,-9.571290,0.036652,-0.099876,-0.036346
9.106520,0.557528,0.729811,-9.518648,0.034056,-0.095906,-0.033292
9.114868,0.551546,0.765703,-9.533005,0.039401,-0.105222,-0.036041
9.123215,0.551546,0.765703,-9.533005,0.033903,-0.095600,-0.034361
9.131502,0.551546,0.766900,-9.523434,0.033903,-0.095600,-0.034361
9.139766,0.568295,0.781257,-9.554541,0.034056,-0.092393,-0.036805
9.148389,0.562313,0.776471,-9.561719,0.033445,-0.089492,-0.036041
9.156673,0.539581,0.770489,-9.521041,0.037874,-0.095753,-0.039706
9.166830,0.534796,0.758525,-9.549755,0.035125,-0.092088,-0.039401
9.177745,0.557528,0.764507,-9.542577,0.038485,-0.097586,-0.039401
9.186442,0.575474,0.763310,-9.571290,0.036652,-0.095906,-0.038332
9.195106,0.586242,0.741775,-9.519845,0.036194,-0.094684,-0.037874
9.203829,0.586242,0.741775,-9.549755,0.035277,-0.094990,-0.036805
9.212267,0.567099,0.734597,-9.549755,0.035277,-0.087812,-0.033903
9.220612,0.563510,0.741775,-9.516255,0.031612,-0.087812,-0.033903
9.229067,0.553938,0.775275,-9.549755,0.031612,-0.087201,-0.034514
9.237385,0.552742,0.807578,-9.541380,0.032529,-0.085827,-0.035430
9.245824,0.567099,0.787239,-9.565308,0.030085,-0.081245,-0.032987
9.254281,0.569492,0.800399,-9.559326,0.030849,-0.083383,-0.033292
9.262637,0.569492,0.800399,-9.559326,0.033598,-0.089492,-0.037874
9.271114,0.565903,0.794417,-9.577272,0.033598,-0.089492,-0.037874
9.279402,0.550349,0.766900,-9.537791,0.037874,-0.093310,-0.038026
9.290198,0.577867,0.772882,-9.559326,0.034514,-0.087965,-0.036499
9.299561,0.544367,0.766900,-9.542577,0.033292,-0.086743,-0.037568
9.309456,0.583849,0.751346,-9.504291,0.036346,-0.090866,-0.040317
9.318768,0.576670,0.734597,-9.588040,0.039554,-0.096822,-0.042913
9.325790,0.557528,0.733400,-9.525827,0.031001,-0.081856,-0.036805
9.332915,0.557528,0.733400,-9.525827,0.036499,-0.094531,-0.038637
9.339510,0.583849,0.716650,-9.527023,0.036499,-0.094531,-0.038637
9.346046,0.552742,0.707079,-9.548559,0.038943,-0.099724,-0.039554
9.352689,0.552742,0.707079,-9.548559,0.038943,-0.097280,-0.034819
9.359124,0.579063,0.734597,-9.543773,0.036652,-0.097280,-0.034819
9.365443,0.547956,0.754936,-9.527023,0.036041,-0.096975,-0.033903
9.372101,0.547956,0.754936,-9.527023,0.036041,-0.096975,-0.033903
9.378453,0.561117,0.726222,-9.543773,0.034056,-0.093004,-0.034056
9.384769,0.555135,0.748953,-9.590433,0.034514,-0.093921,-0.035888
9.391186,0.555135,0.748953,-9.590433,0.034514,-0.093921,-0.035888
9.397844,0.541974,0.772882,-9.538987,0.032529,-0.091630,-0.036652
9.404315,0.571885,0.805185,-9.550951,0.033750,-0.089644,-0.038485
9.411198,0.571885,0.805185,-9.550951,0.033750,-0.089644,-0.038485
9.417659,0.563510,0.808774,-9.525827,0.033139,-0.085368,-0.037415
9.425578,0.555135,0.783649,-9.556933,0.030696,-0.084910,-0.032681
9.434031,0.562313,0.762114,-9.589237,0.032376,-0.090255,-0.032681
9.442321,0.562313,0.762114,-9.589237,0.033598,-0.090866,-0.032070
9.450985,0.563510,0.766900,-9.553344,0.033598,-0.090866,-0.032070
9.459510,0.573081,0.756132,-9.560523,0.036957,-0.095142,-0.033903
9.467784,0.549153,0.740579,-9.555737,0.032529,-0.090713,-0.032529
9.476265,0.561117,0.735793,-9.533005,0.032376,-0.090713,-0.033750
9.484571,0.527617,0.760918,-9.559326,0.033598,-0.089492,-0.035277
9.492932,0.527617,0.760918,-9.559326,0.035125,-0.092852,-0.035125
9.501550,0.538385,0.766900,-9.543773,0.035125,-0.095142,-0.035277
9.510204,0.557528,0.771685,-9.550951,0.037263,-0.095142,-0.035277
9.518694,0.569492,0.788435,-9.542577,0.036346,-0.094073,-0.035888
9.526464,0.567099,0.784846,-9.548559,0.031460,-0.086590,-0.032070
9.534336,0.562313,0.759721,-9.544969,0.034667,-0.092393,-0.034056
9.541850,0.562313,0.759721,-9.544969,0.034667,-0.093310,-0.033750
9.550399,0.565903,0.754936,-9.527023,0.035888,-0.093310,-0.033750
9.558103,0.556331,0.751346,-9.564112,0.039859,-0.100182,-0.038485
9.565753,0.567099,0.745364,-9.541380,0.036041,-0.093921,-0.035277
9.573350,0.567099,0.745364,-9.533005,0.034819,-0.098502,-0.035430
9.580951,0.538385,0.734597,-9.533005,0.034819,-0.098502,-0.035430
9.588493,0.545564,0.735793,-9.556933,0.038332,-0.098044,-0.035888
9.596112,0.559920,0.729811,-9.540184,0.036957,-0.096669,-0.034056
9.603832,0.541974,0.762114,-9.555737,0.028558,-0.084299,-0.026420
9.611377,0.541974,0.762114,-9.555737,0.028558,-0.084299,-0.028711
9.619166,0.549153,0.744168,-9.535398,0.028863,-0.086743,-0.028711
9.627265,0.594616,0.748953,-9.546166,0.037415,-0.097433,-0.036346
9.635613,0.535992,0.756132,-9.574880,0.035583,-0.093462,-0.035888
9.643882,0.561117,0.752543,-9.528220,0.034361,-0.092241,-0.034667
9.652510,0.561117,0.752543,-9.528220,0.034514,-0.098960,-0.031918
9.660897,0.562313,0.741775,-9.485149,0.034514,-0.098960,-0.031918
9.669180,0.547956,0.778864,-9.530612,0.034667,-0.094379,-0.031918
9.678151,0.563510,0.758525,-9.555737,0.033139,-0.091324,-0.031307
9.686463,0.544367,0.774078,-9.547362,0.036346,-0.097586,-0.034972
9.694776,0.558724,0.769292,-9.534202,0.032376,-0.091324,-0.033445
9.703260,0.558724,0.796810,-9.524630,0.032834,-0.084910,-0.035888
9.711607,0.555135,0.796810,-9.524630,0.032681,-0.084299,-0.037568
9.719983,0.573081,0.788435,-9.564112,0.032681,-0.084299,-0.037568
9.728209,0.558724,0.766900,-9.525827,0.030085,-0.078191,-0.036041
9.736486,0.557528,0.790828,-9.541380,0.032834,-0.082925,-0.036194
9.744777,0.555135,0.772882,-9.533005,0.035125,-0.087048,-0.037263
9.753369,0.550349,0.757328,-9.477970,0.034208,-0.088270,-0.036805
9.761770,0.550349,0.757328,-9.477970,0.032987,-0.084452,-0.034819
9.770020,0.561117,0.747757,-9.560523,0.032987,-0.084452,-0.034819
9.778293,0.559920,0.740579,-9.512666,0.036041,-0.093462,-0.037263
9.786597,0.563510,0.750150,-9.531809,0.040470,-0.102167,-0.039248
9.794804,0.550349,0.750150,-9.542577,0.036957,-0.094531,-0.036499
9.803477,0.569492,0.735793,-9.597611,0.033903,-0.088575,-0.035430
9.811896,0.569492,0.735793,-9.597611,0.033750,-0.089186,-0.036041
9.820239,0.583849,0.740579,-9.590433,0.033750,-0.089186,-0.036041
9.828552,0.574277,0.751346,-9.525827,0.029780,-0.082009,-0.033292
9.836760,0.553938,0.762114,-9.543773,0.029932,-0.083689,-0.035583
9.845203,0.576670,0.782453,-9.583255,0.032223,-0.089950,-0.036805
9.854099,0.553938,0.756132,-9.488738,0.028863,-0.079718,-0.035125
9.862585,0.553938,0.756132,-9.510273,0.039248,-0.100640,-0.041233
9.870844,0.553938,0.772882,-9.510273,0.039248,-0.100640,-0.035736
9.879202,0.564706,0.745364,-9.499506,0.034972,-0.090561,-0.035736
9.887627,0.577867,0.764507,-9.571290,0.035888,-0.093615,-0.035583
9.895859,0.564706,0.763310,-9.519845,0.030238,-0.086285,-0.031918
9.904532,0.571885,0.753739,-9.565308,0.035736,-0.095600,-0.035125
9.913072,0.537189,0.734597,-9.542577,0.038179,-0.098197,-0.035430
9.921649,0.537189,0.734597,-9.542577,0.034819,-0.092546,-0.033750
9.929441,0.567099,0.750150,-9.567701,0.034819,-0.092546,-0.033750
9.936953,0.553938,0.729811,-9.567701,0.033750,-0.090408,-0.032834
9.944632,0.540778,0.752543,-9.531809,0.030849,-0.086590,-0.031612
9.952256,0.540778,0.752543,-9.531809,0.033292,-0.092088,-0.034667
9.959964,0.556331,0.770489,-9.558130,0.033292,-0.092088,-0.034667
9.967582,0.541974,0.759721,-9.553344,0.039706,-0.099113,-0.040317
9.975179,0.547956,0.739382,-9.567701,0.033903,-0.090561,-0.037721
9.982823,0.547956,0.745364,-9.513863,0.043677,-0.105222,-0.045815
9.990445,0.550349,0.745364,-9.513863,0.043677,-0.105222,-0.045815
9.997918,0.558724,0.762114,-9.549755,0.040623,-0.099266,-0.040164
10.011698,0.575474,0.753739,-9.567701,0.033750,-0.093462,-0.035583
10.020606,0.557528,0.757328,-9.537791,0.033750,-0.093462,-0.035583
10.029072,0.575474,0.753739,-9.547362,0.036499,-0.096211,-0.035583
10.037753,0.546760,0.766900,-9.556933,0.030696,-0.084758,-0.031612
10.046666,0.538385,0.776471,-9.550951,0.030849,-0.087506,-0.032376
10.055199,0.562313,0.778864,-9.530612,0.034056,-0.090103,-0.032987
10.064544,0.565903,0.766900,-9.544969,0.036652,-0.093768,-0.036346
10.072939,0.521635,0.778864,-9.550951,0.033598,-0.087201,-0.036194
10.081378,0.521635,0.778864,-9.550951,0.032681,-0.087506,-0.034667
10.089887,0.552742,0.793221,-9.538987,0.032681,-0.087506,-0.034667
10.098361,0.558724,0.794417,-9.566505,0.035736,-0.087201,-0.036805
10.107522,0.581456,0.768096,-9.535398,0.030849,-0.084758,-0.034972
10.116457,0.574277,0.769292,-9.542577,0.035277,-0.091172,-0.037568
10.125161,0.570688,0.766900,-9.543773,0.026725,-0.079718,-0.030849
10.132865,0.558724,0.742971,-9.566505,0.035736,-0.090866,-0.034667
10.140549,0.558724,0.742971,-9.566505,0.035736,-0.090866,-0.034667
10.148758,0.567099,0.729811,-9.554541,0.032070,-0.086590,-0.032681
10.157376,0.547956,0.728614,-9.524630,0.033292,-0.090866,-0.034667
10.165106,0.540778,0.715454,-9.559326,0.035583,-0.093462,-0.037721
10.173812,0.576670,0.721436,-9.546166,0.034361,-0.092852,-0.036957
10.182121,0.576670,0.721436,-9.580862,0.033598,-0.090255,-0.035125
10.190146,0.575474,0.759721,-9.580862,0.033598,-0.090255,-0.035125
10.197746,0.555135,0.748953,-9.561719,0.032987,-0.087048,-0.036194
10.205538,0.537189,0.763310,-9.541380,0.037110,-0.094531,-0.037721
10.213637,0.551546,0.765703,-9.533005,0.031918,-0.089186,-0.033598
10.221323,0.551546,0.765703,-9.533005,0.037415,-0.095600,-0.036805
10.229521,0.563510,0.760918,-9.571290,0.037415,-0.095600,-0.036805
10.237859,0.586242,0.792024,-9.542577,0.033903,-0.090561,-0.034819
10.246200,0.550349,0.753739,-9.541380,0.037874,-0.098044,-0.034514
10.255720,0.540778,0.765703,-9.548559,0.035736,-0.095753,-0.034972
10.265070,0.551546,0.768096,-9.524630,0.030085,-0.085216,-0.034361
10.274679,0.553938,0.748953,-9.528220,0.035125,-0.092699,-0.038637
10.284113,0.571885,0.745364,-9.530612,0.035277,-0.093921,-0.035430
10.293487,0.535992,0.752543,-9.583255,0.037415,-0.095753,-0.036957
10.302588,0.535992,0.738186,-9.604790,0.036041,-0.094379,-0.037110
10.312519,0.563510,0.748953,-9.554541,0.036805,-0.097891,-0.037263
10.321868,0.563510,0.748953,-9.567701,0.032223,-0.089034,-0.033292
10.330935,0.544367,0.759721,-9.567701,0.032223,-0.087965,-0.032987
10.339254,0.569492,0.754936,-9.547362,0.032223,-0.087965,-0.032987
10.351410,0.570688,0.763310,-9.534202,0.035888,-0.093004,-0.035888
10.364104,0.561117,0.770489,-9.555737,0.035736,-0.092699,-0.037263
10.381103,0.558724,0.770489,-9.558130,0.032223,-0.088423,-0.035736
10.390605,0.569492,0.780060,-9.530612,0.032070,-0.086132,-0.034361
10.400204,0.553938,0.771685,-9.562916,0.032070,-0.086132,-0.033903
10.408717,0.576670,0.762114,-9.549755,0.032070,-0.084452,-0.033903
10.416598,0.567099,0.759721,-9.554541,0.034361,-0.087506,-0.036805
10.424606,0.571885,0.763310,-9.550951,0.031307,-0.084605,-0.035125
10.430457,0.571885,0.763310,-9.550951,0.031307,-0.084605,-0.035125
10.434953,0.547956,0.752543,-9.518648,0.032376,-0.086743,-0.034819
10.441587,0.547956,0.752543,-9.518648,0.033598,-0.087812,-0.035583
10.447819,0.563510,0.751346,-9.556933,0.033598,-0.087812,-0.035583
10.453629,0.544367,0.751346,-9.553344,0.035736,-0.093921,-0.036805
10.458490,0.544367,0.751346,-9.553344,0.035736,-0.093921,-0.036805
10.463283,0.538385,0.752543,-9.506684,0.036346,-0.097128,-0.037415
10.468236,0.538385,0.752543,-9.506684,0.036346,-0.097128,-0.037415
10.473005,0.559920,0.726222,-9.566505,0.031001,-0.086590,-0.031612
10.477795,0.559920,0.726222,-9.566505,0.031001,-0.086590,-0.031612
10.482478,0.559920,0.757328,-9.524630,0.033903,-0.089797,-0.033598
10.487023,0.559920,0.757328,-9.524630,0.033903,-0.089797,-0.033598
10.491610,0.559920,0.757328,-9.524630,0.032987,-0.090561,-0.033292
10.496140,0.551546,0.741775,-9.550951,0.032987,-0.090561,-0.033292
10.500706,0.551546,0.741775,-9.550951,0.032987,-0.090561,-0.033292
10.505274,0.561117,0.770489,-9.560523,0.034056,-0.091324,-0.033445
10.509992,0.561117,0.770489,-9.560523,0.034056,-0.091324,-0.033445
10.514661,0.558724,0.744168,-9.558130,0.032987,-0.089797,-0.033598
10.519255,0.558724,0.744168,-9.558130,0.032987,-0.089797,-0.033598
10.523860,0.562313,0.770489,-9.552148,0.032223,-0.089950,-0.031612
10.528410,0.562313,0.770489,-9.552148,0.032223,-0.089950,-0.031612
10.532933,0.575474,0.740579,-9.562916,0.033139,-0.095600,-0.032223
10.537449,0.575474,0.740579,-9.562916,0.033139,-0.095600,-0.032223
10.542050,0.575474,0.740579,-9.531809,0.038026,-0.104916,-0.031765
10.546622,0.557528,0.729811,-9.531809,0.038026,-0.104916,-0.031765
10.551168,0.557528,0.729811,-9.531809,0.038026,-0.104916,-0.028711
10.555738,0.528814,0.736989,-9.524630,0.032070,-0.093921,-0.028711
10.560431,0.528814,0.736989,-9.524630,0.032070,-0.093921,-0.028711
10.565489,0.535992,0.742971,-9.544969,0.031460,-0.092546,-0.030696
12.571617,0.485743,0.764507,-9.556933,0.033445,-0.085979,-0.041233
12.576503,0.485743,0.764507,-9.556933,0.033445,-0.085979,-0.041233
12.581070,0.563510,0.764507,-9.494720,0.034514,-0.085368,-0.032987
12.585615,0.563510,0.764507,-9.494720,0.034514,-0.085368,-0.032987
12.590329,0.577867,0.771685,-9.633504,0.031918,-0.090103,-0.033445
12.594891,0.577867,0.771685,-9.633504,0.031918,-0.090103,-0.033445
12.599479,0.619741,0.803988,-9.475577,0.034514,-0.093004,-0.034514
12.604047,0.619741,0.803988,-9.475577,0.034514,-0.093004,-0.034514
12.608696,0.619741,0.819542,-9.564112,0.034972,-0.081092,-0.042761
12.613276,0.565903,0.819542,-9.564112,0.034972,-0.081092,-0.042761
12.617987,0.565903,0.819542,-9.564112,0.032987,-0.083536,-0.044593
12.622594,0.526421,0.744168,-9.541380,0.032987,-0.083536,-0.044593
12.627204,0.526421,0.744168,-9.541380,0.032987,-0.083536,-0.044593
12.631743,0.605384,0.729811,-9.494720,0.032223,-0.082161,-0.042761
12.636337,0.605384,0.729811,-9.494720,0.032223,-0.082161,-0.042761
12.640941,0.567099,0.774078,-9.596415,0.031918,-0.080787,-0.049175
12.645487,0.567099,0.774078,-9.596415,0.031918,-0.080787,-0.049175
12.649976,0.585045,0.698704,-9.533005,0.038332,-0.087965,-0.050702
12.654561,0.585045,0.698704,-9.533005,0.038332,-0.087965,-0.050702
12.659078,0.583849,0.678365,-9.553344,0.033598,-0.087201,-0.043066
12.663785,0.583849,0.678365,-9.553344,0.033598,-0.087201,-0.043066
12.668512,0.583849,0.695115,-9.517452,0.032223,-0.087965,-0.033750
12.673266,0.589831,0.695115,-9.517452,0.032223,-0.087965,-0.033750
12.677891,0.589831,0.695115,-9.517452,0.032529,-0.092241,-0.026725
12.682446,0.577867,0.690329,-9.580862,0.032529,-0.092241,-0.026725
12.687059,0.577867,0.690329,-9.580862,0.032529,-0.092241,-0.026725
12.691955,0.539581,0.687936,-9.549755,0.033598,-0.098960,-0.021380
12.696598,0.539581,0.687936,-9.549755,0.033598,-0.098960,-0.021380
12.701172,0.563510,0.717847,-9.565308,0.031765,-0.096669,-0.019853
12.705762,0.563510,0.717847,-9.565308,0.031765,-0.096669,-0.019853
12.710339,0.577867,0.742971,-9.474381,0.029780,-0.093310,-0.019548
12.715015,0.577867,0.742971,-9.474381,0.029780,-0.093310,-0.019548
12.719865,0.568295,0.741775,-9.567701,0.030391,-0.094684,-0.022144
12.724435,0.568295,0.741775,-9.567701,0.030391,-0.094684,-0.022144
12.729007,0.562313,0.758525,-9.556933,0.032529,-0.096975,-0.024282
12.733593,0.562313,0.758525,-9.556933,0.032529,-0.096975,-0.024282
12.738427,0.562313,0.758525,-9.544969,0.034514,-0.095448,-0.024129
12.743080,0.562313,0.784846,-9.544969,0.034514,-0.095448,-0.024129
12.747610,0.562313,0.784846,-9.544969,0.034514,-0.088881,-0.023518
12.752138,0.574277,0.807578,-9.582058,0.032070,-0.088881,-0.023518
12.756860,0.574277,0.807578,-9.582058,0.032070,-0.088881,-0.023518
12.761412,0.544367,0.839881,-9.553344,0.030085,-0.086132,-0.027794
12.766008,0.544367,0.839881,-9.553344,0.030085,-0.086132,-0.027794
12.770739,0.555135,0.820738,-9.541380,0.036346,-0.096211,-0.037263
12.775598,0.555135,0.820738,-9.541380,0.036346,-0.096211,-0.037263
12.780223,0.556331,0.800399,-9.567701,0.036805,-0.090866,-0.038637
12.784813,0.556331,0.800399,-9.567701,0.036805,-0.090866,-0.038637
12.789262,0.570688,0.803988,-9.567701,0.038790,-0.092546,-0.047189
12.793661,0.570688,0.803988,-9.567701,0.038790,-0.092546,-0.047189
12.806704,0.564706,0.776471,-9.558130,0.040623,-0.091783,-0.050396
12.812992,0.555135,0.735793,-9.542577,0.035583,-0.086743,-0.045509
12.818936,0.586242,0.753739,-9.538987,0.034361,-0.087965,-0.044746
12.825256,0.586242,0.753739,-9.538987,0.034361,-0.087965,-0.044746
12.829815,0.579063,0.729811,-9.562916,0.035736,-0.088117,-0.042302
12.834397,0.579063,0.729811,-9.562916,0.035736,-0.088117,-0.042302
12.838931,0.585045,0.699901,-9.531809,0.034514,-0.091630,-0.037568
12.843454,0.585045,0.699901,-9.531809,0.034514,-0.091630,-0.037568
12.847965,0.585045,0.699901,-9.531809,0.034819,-0.096517,-0.035430
12.852482,0.535992,0.659223,-9.576076,0.034819,-0.096517,-0.035430
12.856948,0.535992,0.659223,-9.576076,0.034819,-0.096517,-0.035430
12.861512,0.533599,0.642473,-9.541380,0.036346,-0.097128,-0.032223
12.866189,0.533599,0.642473,-9.541380,0.036346,-0.097128,-0.032223
12.871055,0.550349,0.661615,-9.535398,0.034667,-0.101862,-0.028253
12.875854,0.550349,0.661615,-9.535398,0.034667,-0.101862,-0.028253
12.880407,0.568295,0.678365,-9.506684,0.035888,-0.103542,-0.030391
12.884905,0.568295,0.678365,-9.506684,0.035888,-0.103542,-0.030391
12.889491,0.569492,0.683151,-9.533005,0.030391,-0.096517,-0.029322
12.893967,0.569492,0.683151,-9.533005,0.030391,-0.096517,-0.029322
12.898533,0.546760,0.697508,-9.523434,0.035125,-0.099724,-0.033292
12.902993,0.546760,0.697508,-9.523434,0.035125,-0.099724,-0.033292
12.907665,0.546760,0.697508,-9.523434,0.033598,-0.100640,-0.031001
12.912174,0.541974,0.689133,-9.562916,0.033598,-0.100640,-0.031001
12.916991,0.541974,0.689133,-9.562916,0.030696,-0.095142,-0.022297
12.922174,0.586242,0.674776,-9.546166,0.030696,-0.095142,-0.022297
12.927397,0.586242,0.674776,-9.546166,0.030085,-0.103542,-0.018173
12.931950,0.611366,0.696311,-9.582058,0.030085,-0.103542,-0.018173
12.936434,0.611366,0.696311,-9.582058,0.030085,-0.103542,-0.018173
12.940973,0.588634,0.685544,-9.518648,0.027336,-0.105222,-0.013897
12.945476,0.588634,0.685544,-9.518648,0.027336,-0.105222,-0.013897
12.950045,0.512064,0.674776,-9.522238,0.024435,-0.114537,-0.011148
12.955039,0.512064,0.674776,-9.522238,0.024435,-0.114537,-0.011148
12.960124,0.538385,0.656830,-9.565308,0.022907,-0.119271,-0.005040
12.965132,0.538385,0.656830,-9.565308,0.022907,-0.119271,-0.005040
12.969989,0.531207,0.646062,-9.598808,0.015730,-0.112552,0.007025
12.974550,0.531207,0.646062,-9.598808,0.015730,-0.112552,0.007025
12.979130,0.696311,0.500100,-9.518648,0.021380,-0.117744,0.011912
12.983603,0.696311,0.500100,-9.518648,0.021380,-0.117744,0.011912
12.987979,0.696311,0.500100,-9.489934,0.031612,-0.121715,-0.002138
12.992402,0.495314,0.326620,-9.489934,0.031612,-0.121715,-0.002138
12.996826,0.495314,0.326620,-9.489934,0.031612,-0.121715,-0.002138
13.001385,0.423530,0.196211,-9.646664,0.034208,-0.114079,-0.005956
13.005815,0.423530,0.196211,-9.646664,0.034208,-0.114079,-0.005956
13.010376,0.458226,0.222533,-9.615558,0.023213,-0.094684,0.009774
13.014870,0.458226,0.222533,-9.615558,0.023213,-0.094684,0.009774
13.019432,0.597009,0.293121,-9.579665,0.025198,-0.101251,0.004734
13.024154,0.597009,0.293121,-9.579665,0.025198,-0.101251,0.004734
13.028570,0.784846,0.593420,-9.492327,0.017868,-0.097586,-0.016188
13.032968,0.784846,0.593420,-9.492327,0.017868,-0.097586,-0.016188
13.037690,0.784846,0.593420,-9.492327,0.000764,-0.086896,-0.065973
13.042205,0.746561,1.216750,-9.477970,0.000764,-0.086896,-0.065973
13.046780,0.746561,1.216750,-9.477970,0.000764,-0.086896,-0.065973
13.051262,0.320638,1.641476,-9.524630,-0.013286,-0.077122,-0.109650
13.055707,0.320638,1.641476,-9.524630,-0.013286,-0.077122,-0.109650
13.060184,0.217747,1.791028,-9.426525,0.000000,-0.091630,-0.117897
13.064916,0.217747,1.791028,-9.426525,0.000000,-0.091630,-0.117897
15.072495,0.412762,0.636491,-8.874979,0.047342,-0.079107,-0.003818
15.077296,0.660419,0.853041,-8.916853,0.017715,-0.093921,-0.034056
15.082050,0.660419,0.853041,-8.916853,0.017715,-0.093921,-0.034056
15.086746,0.534796,0.985843,-10.046266,0.036194,-0.092241,-0.032529
15.091458,0.534796,0.985843,-10.046266,0.036194,-0.092241,-0.032529
15.096301,0.495314,-0.195015,-9.739984,0.048564,-0.085674,-0.038637
15.100986,0.495314,-0.195015,-9.739984,0.048564,-0.085674,-0.038637
15.105607,0.470190,0.759721,-10.130014,0.043371,-0.090255,-0.036346
15.110389,0.470190,0.759721,-10.130014,0.043371,-0.090255,-0.036346
15.115109,0.808774,1.696511,-8.853444,0.021686,-0.084147,-0.028558
15.119541,0.808774,1.696511,-8.853444,0.021686,-0.084147,-0.028558
15.124020,0.808774,1.696511,-8.853444,0.047037,-0.085979,-0.005956
15.128508,0.898505,0.854238,-9.321240,0.047037,-0.085979,-0.005956
15.132950,0.898505,0.854238,-9.321240,0.047037,-0.085979,-0.005956
15.137360,0.510868,-0.032303,-9.049655,0.041386,-0.079871,-0.038637
15.141712,0.510868,-0.032303,-9.049655,0.041386,-0.079871,-0.038637
15.146282,0.162712,1.010968,-10.033105,0.030391,-0.113010,-0.057116
15.151453,0.162712,1.010968,-10.033105,0.030391,-0.113010,-0.057116
15.155889,0.855434,0.514457,-10.051051,0.041692,-0.107512,-0.042455
15.160361,0.855434,0.514457,-10.051051,0.041692,-0.107512,-0.042455
15.164768,0.969093,0.239282,-9.226724,0.038485,-0.086743,-0.024129
15.169940,0.969093,0.239282,-9.226724,0.038485,-0.086743,-0.024129
15.175172,0.628116,0.619741,-9.559326,0.051924,-0.060934,-0.033292
15.179598,0.628116,0.619741,-9.559326,0.051924,-0.060934,-0.033292
15.183997,0.628116,0.619741,-9.559326,0.017104,-0.060170,-0.035888
15.188435,0.892523,0.502493,-8.319844,0.017104,-0.060170,-0.035888
15.192897,0.892523,0.502493,-8.319844,0.017104,-0.060170,-0.035888
15.197502,0.934397,1.110270,-9.445667,0.064752,-0.097738,-0.031765
15.201944,0.934397,1.110270,-9.445667,0.064752,-0.097738,-0.031765
15.206357,0.399601,1.026521,-10.198210,0.041539,-0.099266,-0.070250
15.210856,0.399601,1.026521,-10.198210,0.041539,-0.099266,-0.070250
15.215310,0.479761,0.343370,-9.753145,0.032681,-0.094531,-0.060781
15.219760,0.479761,0.343370,-9.753145,0.032681,-0.094531,-0.060781
15.224183,0.479761,0.343370,-10.168300,0.041081,-0.059254,-0.070250
15.228633,0.809970,1.294517,-10.168300,0.041081,-0.059254,-0.070250
15.233088,0.809970,1.294517,-10.168300,0.041081,-0.059254,-0.070250
15.237506,0.284746,0.215354,-9.291330,0.068264,-0.048564,-0.064294
15.241914,0.284746,0.215354,-9.291330,0.068264,-0.048564,-0.064294
15.246660,0.273978,1.274178,-9.779466,0.040623,-0.045968,-0.051160
15.251304,0.273978,1.274178,-9.779466,0.040623,-0.045968,-0.051160
15.255736,0.553938,0.544367,-9.286545,0.074526,-0.063683,-0.047189
15.260538,0.553938,0.544367,-9.286545,0.074526,-0.063683,-0.047189
15.265219,0.628116,0.169890,-10.368100,0.059101,-0.103084,-0.032681
17.271572,0.766900,1.009771,-8.852247,0.022755,-0.087201,0.038790
17.276413,0.766900,1.009771,-8.852247,0.022755,-0.087201,0.038790
17.281193,0.589831,1.067199,-9.644271,0.044593,-0.069639,0.039248
17.286031,0.589831,1.067199,-9.644271,0.044593,-0.069639,0.039248
17.290770,0.589831,0.043071,-10.169496,0.037110,-0.054672,0.050549
17.295479,0.642473,0.043071,-10.169496,0.037110,-0.054672,0.050549
17.300281,0.642473,0.043071,-10.169496,0.045051,-0.051771,0.072388
17.305017,0.336192,1.098306,-9.355936,0.045051,-0.051771,0.072388
17.309743,0.336192,1.098306,-9.355936,0.045051,-0.051771,0.076816
17.314458,0.362513,-0.081356,-9.637093,0.044135,-0.058490,0.076816
17.319267,0.362513,-0.081356,-9.637093,0.044135,-0.058490,0.076816
17.323706,0.376870,1.167697,-10.025927,0.018937,-0.121868,0.048717
17.328194,0.376870,1.167697,-10.025927,0.018937,-0.121868,0.048717
17.332603,0.571885,0.564706,-9.428917,0.028100,-0.144622,0.039401
17.337039,0.571885,0.564706,-9.428917,0.028100,-0.144622,0.039401
17.341525,0.644866,-0.258425,-9.810573,0.049022,-0.103084,0.066584
17.345944,0.644866,-0.258425,-9.810573,0.049022,-0.103084,0.066584
17.350387,0.644866,-0.258425,-9.810573,0.011912,-0.077733,0.053451
17.354779,0.429512,1.948954,-9.078369,0.011912,-0.077733,0.053451
