timestamp,accX,accY,accZ,gyroX,gyroY,gyroZ
0.000077,0.684347,0.926022,-9.506684,0.034056,-0.092546,-0.021075
0.005311,0.684347,0.926022,-9.506684,0.034056,-0.092546,-0.021075
0.009414,0.684347,0.926022,-9.506684,0.035888,-0.111941,-0.009316
0.013685,0.634098,1.001396,-9.528220,0.035888,-0.111941,-0.009316
0.017927,0.634098,1.001396,-9.528220,0.035888,-0.111941,-0.009316
0.022010,0.534796,0.961915,-9.611968,0.037874,-0.131183,-0.011148
0.026069,0.534796,0.961915,-9.611968,0.037874,-0.131183,-0.011148
0.030154,0.468993,0.933201,-9.416953,0.037721,-0.133016,-0.025962
0.034238,0.468993,0.933201,-9.416953,0.037721,-0.133016,-0.025962
0.038453,0.468993,0.933201,-9.416953,0.037721,-0.133016,-0.025962
0.042539,0.384048,0.926022,-9.573683,0.039248,-0.131947,-0.045051
0.046602,0.384048,0.926022,-9.573683,0.039248,-0.131947,-0.045051
0.050685,0.441476,0.912862,-9.521041,0.036805,-0.095753,-0.055131
0.054898,0.441476,0.912862,-9.521041,0.036805,-0.095753,-0.055131
0.060690,0.433101,0.851845,-9.585647,0.022755,-0.053451,-0.059559
0.066070,0.433101,0.851845,-9.585647,0.022755,-0.053451,-0.059559
0.070253,0.547956,0.808774,-9.497113,0.027336,-0.040470,-0.067959
0.074346,0.547956,0.808774,-9.497113,0.027336,-0.040470,-0.067959
0.078535,0.547956,0.808774,-9.497113,0.027336,-0.040470,-0.067959
0.082646,0.586242,0.786042,-9.560523,0.029474,-0.045509,-0.071929
0.086757,0.586242,0.786042,-9.560523,0.029474,-0.045509,-0.071929
0.090825,0.604188,0.756132,-9.600004,0.033139,-0.067806,-0.069180
0.094929,0.604188,0.756132,-9.600004,0.033139,-0.067806,-0.069180
0.099109,0.604188,0.756132,-9.600004,0.035888,-0.092852,-0.056658
0.103173,0.586242,0.713061,-9.600004,0.035888,-0.092852,-0.056658
0.107246,0.586242,0.713061,-9.600004,0.035888,-0.092852,-0.056658
0.111278,0.501296,0.654437,-9.584451,0.036041,-0.105680,-0.046884
0.115541,0.501296,0.654437,-9.584451,0.036041,-0.105680,-0.046884
0.119743,0.501296,0.707079,-9.521041,0.034972,-0.118508,-0.035736
0.123866,0.470190,0.707079,-9.521041,0.034972,-0.118508,-0.035736
0.127959,0.470190,0.707079,-9.521041,0.034972,-0.118508,-0.035736
0.132052,0.418744,0.768096,-9.586844,0.034056,-0.111483,-0.027642
0.136133,0.418744,0.768096,-9.586844,0.034056,-0.111483,-0.027642
0.140318,0.373280,0.827917,-9.507881,0.035736,-0.100182,-0.021228
0.144410,0.373280,0.827917,-9.507881,0.035736,-0.100182,-0.021228
0.148470,0.373280,0.827917,-9.507881,0.035736,-0.100182,-0.021228
0.152538,0.534796,0.870987,-9.578469,0.037263,-0.102320,-0.011148
0.156596,0.534796,0.870987,-9.578469,0.037263,-0.102320,-0.011148
0.160811,0.623330,0.972682,-9.475577,0.037721,-0.099418,-0.001833
0.165066,0.623330,0.972682,-9.475577,0.037721,-0.099418,-0.001833
0.169176,0.623330,0.972682,-9.475577,0.036499,-0.097738,-0.007941
0.173246,0.655633,0.906880,-9.528220,0.036499,-0.097738,-0.007941
0.177617,0.655633,0.906880,-9.528220,0.036499,-0.097738,-0.007941
0.181832,0.474975,0.941576,-9.501899,0.038179,-0.102014,-0.025962
0.185972,0.474975,0.941576,-9.501899,0.038179,-0.102014,-0.025962
0.190078,0.447458,0.808774,-9.542577,0.036041,-0.109650,-0.022755
0.194142,0.447458,0.808774,-9.542577,0.036041,-0.109650,-0.022755
0.198255,0.447458,0.808774,-9.542577,0.036041,-0.109650,-0.022755
0.202416,0.520439,0.762114,-9.516255,0.036346,-0.092546,-0.022602
0.206483,0.520439,0.762114,-9.516255,0.036346,-0.092546,-0.022602
0.210526,0.443869,0.801596,-9.560523,0.040775,-0.085827,-0.021991
0.214963,0.443869,0.801596,-9.560523,0.040775,-0.085827,-0.021991
0.219194,0.443869,0.801596,-9.560523,0.039248,-0.090866,-0.016341
0.223405,0.574277,0.803988,-9.525827,0.039248,-0.090866,-0.016341
0.227485,0.574277,0.803988,-9.525827,0.039248,-0.090866,-0.016341
0.231547,0.641276,0.781257,-9.568898,0.033292,-0.097280,-0.014355
0.235611,0.641276,0.781257,-9.568898,0.033292,-0.097280,-0.014355
0.239753,0.434297,0.780060,-9.510273,0.035736,-0.091019,-0.029474
0.243929,0.434297,0.780060,-9.510273,0.035736,-0.091019,-0.029474
0.248044,0.434297,0.780060,-9.510273,0.035736,-0.091019,-0.029474
0.252098,0.459422,0.765703,-9.499506,0.034361,-0.086437,-0.036652
0.256159,0.459422,0.765703,-9.499506,0.034361,-0.086437,-0.036652
0.260291,0.656830,0.704686,-9.531809,0.036805,-0.097738,-0.037415
0.264655,0.656830,0.704686,-9.531809,0.036805,-0.097738,-0.037415
0.268803,0.656830,0.704686,-9.531809,0.027947,-0.081551,-0.036346
0.272868,0.626920,0.765703,-9.567701,0.027947,-0.081551,-0.036346
0.276914,0.626920,0.765703,-9.567701,0.027947,-0.081551,-0.036346
0.281441,0.547956,0.778864,-9.574880,0.025962,-0.078649,-0.052534
0.285532,0.547956,0.778864,-9.574880,0.025962,-0.078649,-0.052534
0.289606,0.366102,0.799203,-9.509077,0.023213,-0.072998,-0.067806
0.293674,0.366102,0.799203,-9.509077,0.023213,-0.072998,-0.067806
0.297810,0.366102,0.799203,-9.509077,0.023213,-0.072998,-0.067806
0.302008,0.354138,0.812363,-9.521041,0.027184,-0.078649,-0.065363
0.306085,0.354138,0.812363,-9.521041,0.027184,-0.078649,-0.065363
0.310177,0.476172,0.923630,-9.511470,0.031765,-0.075747,-0.055436
0.314634,0.476172,0.923630,-9.511470,0.031765,-0.075747,-0.055436
0.318828,0.476172,0.923630,-9.511470,0.028405,-0.065057,-0.042455
0.323043,0.612563,0.996611,-9.522238,0.028405,-0.065057,-0.042455
0.327159,0.612563,0.996611,-9.522238,0.028405,-0.065057,-0.042455
0.331215,0.608973,0.957129,-9.558130,0.027031,-0.066126,-0.036041
0.335292,0.608973,0.957129,-9.558130,0.027031,-0.066126,-0.036041
0.339355,0.608973,0.899701,-9.515059,0.032834,-0.081398,-0.033598
0.343553,0.495314,0.899701,-9.515059,0.032834,-0.081398,-0.033598
0.347618,0.495314,0.899701,-9.515059,0.032834,-0.081398,-0.033598
0.351735,0.486939,0.826720,-9.555737,0.041997,-0.101098,-0.022449
0.355875,0.486939,0.826720,-9.555737,0.041997,-0.101098,-0.022449
0.359950,0.455833,0.811167,-9.535398,0.045968,-0.116370,0.001527
0.364411,0.455833,0.811167,-9.535398,0.045968,-0.116370,0.001527
0.368611,0.455833,0.811167,-9.535398,0.047495,-0.126602,0.021075
0.372684,0.622134,0.780060,-9.580862,0.047495,-0.126602,0.021075
0.378266,0.622134,0.780060,-9.580862,0.047495,-0.126602,0.027947
0.382525,0.510868,0.821935,-9.467203,0.045815,-0.121257,0.027947
0.386672,0.510868,0.821935,-9.467203,0.045815,-0.121257,0.027947
0.390773,0.616152,0.820738,-9.501899,0.036194,-0.100945,0.031001
0.394817,0.616152,0.820738,-9.501899,0.036194,-0.100945,0.031001
0.398855,0.616152,0.820738,-9.501899,0.040317,-0.129351,0.009774
0.403011,0.608973,0.763310,-9.498309,0.040317,-0.129351,0.009774
0.407126,0.608973,0.763310,-9.498309,0.040317,-0.129351,0.009774
0.411184,0.409173,0.794417,-9.531809,0.036346,-0.110567,-0.023213
0.415471,0.409173,0.794417,-9.531809,0.036346,-0.110567,-0.023213
0.419619,0.431904,0.741775,-9.519845,0.036499,-0.101098,-0.048564
0.423817,0.431904,0.741775,-9.519845,0.036499,-0.101098,-0.048564
0.427930,0.431904,0.741775,-9.519845,0.036499,-0.101098,-0.048564
0.431983,0.480957,0.690329,-9.511470,0.030391,-0.074526,-0.062003
0.436039,0.480957,0.690329,-9.511470,0.030391,-0.074526,-0.062003
0.440087,0.599402,0.741775,-9.415757,0.027489,-0.043982,-0.073151
0.444251,0.599402,0.741775,-9.415757,0.027489,-0.043982,-0.073151
0.448335,0.599402,0.741775,-9.415757,0.027489,-0.052382,-0.073609
0.452407,0.555135,0.769292,-9.639486,0.027794,-0.052382,-0.073609
0.456515,0.555135,0.769292,-9.639486,0.027794,-0.052382,-0.073609
0.460596,0.614955,0.729811,-9.529416,0.024740,-0.054825,-0.062614
0.464869,0.614955,0.729811,-9.529416,0.024740,-0.054825,-0.062614
0.469102,0.614955,0.729811,-9.454042,0.026573,-0.067806,-0.055894
0.473173,0.592224,0.754936,-9.454042,0.026573,-0.067806,-0.055894
0.477237,0.592224,0.754936,-9.454042,0.026573,-0.067806,-0.055894
0.481285,0.464208,0.759721,-9.596415,0.031154,-0.087506,-0.044288
0.485468,0.464208,0.759721,-9.596415,0.031154,-0.087506,-0.044288
0.489562,0.507278,0.764507,-9.530612,0.034972,-0.104611,-0.023366
0.493646,0.507278,0.764507,-9.530612,0.034972,-0.104611,-0.023366
0.497729,0.507278,0.764507,-9.530612,0.034972,-0.104611,-0.023366
0.501777,0.553938,0.837488,-9.518648,0.032681,-0.112552,-0.007789
0.505982,0.553938,0.837488,-9.518648,0.032681,-0.112552,-0.007789
0.510046,0.607777,0.879362,-9.565308,0.034819,-0.117286,-0.003207
0.514132,0.607777,0.879362,-9.565308,0.034819,-0.117286,-0.003207
0.518651,0.607777,0.879362,-9.565308,0.035583,-0.116217,-0.009621
0.522840,0.484547,0.904487,-9.574880,0.035583,-0.116217,-0.009621
0.527014,0.484547,0.904487,-9.574880,0.035583,-0.116217,-0.009621
0.531086,0.498904,0.875773,-9.537791,0.030391,-0.104763,-0.021075
0.535253,0.498904,0.875773,-9.537791,0.030391,-0.104763,-0.021075
0.539312,0.498904,0.860220,-9.488738,0.032834,-0.100335,-0.031918
0.543638,0.498904,0.860220,-9.488738,0.032834,-0.100335,-0.031918
0.547776,0.498904,0.860220,-9.488738,0.032834,-0.100335,-0.031918
0.551843,0.484547,0.866202,-9.522238,0.029627,-0.080940,-0.039248
0.555932,0.484547,0.866202,-9.522238,0.029627,-0.080940,-0.039248
0.560021,0.573081,0.847059,-9.591629,0.030391,-0.068875,-0.039248
0.564116,0.573081,0.847059,-9.591629,0.030391,-0.068875,-0.039248
0.571595,0.616152,0.756132,-9.530612,0.032987,-0.071471,-0.046120
0.580859,0.592224,0.765703,-9.475577,0.034514,-0.078954,-0.054367
0.590734,0.502493,0.733400,-9.548559,0.033903,-0.094837,-0.054214
0.599874,0.463011,0.750150,-9.708878,0.034056,-0.100335,-0.044899
0.609260,0.470190,0.750150,-9.367900,0.032987,-0.093157,-0.034819
0.618647,0.490529,0.774078,-9.544969,0.033292,-0.090866,-0.033292
0.627953,0.490529,0.774078,-9.518648,0.034361,-0.094684,-0.033445
0.637206,0.570688,0.857827,-9.518648,0.034972,-0.091477,-0.042913
0.646362,0.575474,0.867398,-9.646664,0.034972,-0.087965,-0.043066
0.655545,0.480957,0.894916,-9.717253,0.033445,-0.087965,-0.043066
0.664798,0.587438,0.844666,-9.659825,0.034667,-0.094073,-0.040164
0.673535,0.530010,0.792024,-9.437292,0.030696,-0.089492,-0.038179
0.682505,0.515653,0.814756,-9.511470,0.036041,-0.087965,-0.040928
0.690910,0.518046,0.832702,-9.621540,0.031154,-0.081856,-0.037110
0.699143,0.500100,0.781257,-9.547362,0.037415,-0.093768,-0.039095
0.707381,0.500100,0.781257,-9.547362,0.033750,-0.091935,-0.039095
0.715705,0.501296,0.783649,-9.533005,0.033750,-0.091935,-0.039095
0.724097,0.482154,0.824327,-9.553344,0.031918,-0.089950,-0.036957
0.732422,0.357727,0.886541,-9.537791,0.031307,-0.078191,-0.024893
0.740607,0.518046,0.926022,-9.536594,0.041233,-0.093310,-0.016341
0.748897,0.714258,0.888934,-9.567701,0.036346,-0.084910,-0.008858
0.757194,0.714258,0.888934,-9.567701,0.032834,-0.080940,-0.018173
0.765398,0.599402,0.918844,-9.578469,0.032834,-0.080940,-0.018173
0.773933,0.473779,0.875773,-9.540184,0.033445,-0.085674,-0.029627
0.782123,0.470190,0.815953,-9.507881,0.030696,-0.081092,-0.032070
0.790470,0.580259,0.777667,-9.541380,0.038332,-0.096822,-0.029627
0.798826,0.667598,0.723829,-9.573683,0.034361,-0.089339,-0.024282
0.807067,0.667598,0.723829,-9.573683,0.035125,-0.100182,-0.030849
0.815430,0.630509,0.679562,-9.572487,0.035125,-0.100182,-0.030849
0.823954,0.521635,0.650848,-9.511470,0.030849,-0.106596,-0.042302
0.832220,0.443869,0.606581,-9.474381,0.027794,-0.104916,-0.054672
0.840509,0.334995,0.637687,-9.631111,0.030085,-0.096975,-0.063072
0.848817,0.368495,0.698704,-9.541380,0.027336,-0.072998,-0.056505
0.857255,0.368495,0.698704,-9.541380,0.024587,-0.061087,-0.049786
0.865710,0.573081,0.799203,-9.541380,0.024587,-0.061087,-0.048258
0.874224,0.662812,0.884148,-9.560523,0.022144,-0.058948,-0.048258
0.882592,0.643669,1.013360,-9.506684,0.025962,-0.065363,-0.043219
0.890908,0.563510,1.043271,-9.521041,0.029627,-0.077580,-0.022755
0.899232,0.502493,1.043271,-9.507881,0.041539,-0.111025,-0.002902
0.907445,0.502493,1.043271,-9.507881,0.038637,-0.117439,0.017257
0.915764,0.557528,0.965504,-9.594022,0.038637,-0.117439,0.018173
0.924211,0.620937,0.902094,-9.531809,0.042761,-0.131031,0.018173
0.932495,0.561117,0.860220,-9.591629,0.044135,-0.138972,0.009010
0.940863,0.423530,0.788435,-9.504291,0.042761,-0.118966,-0.004276
0.949094,0.425922,0.759721,-9.611968,0.037721,-0.100793,-0.021380
0.957418,0.425922,0.759721,-9.611968,0.033598,-0.078343,-0.039554
0.965623,0.458226,0.719043,-9.541380,0.033598,-0.078343,-0.055894
0.974128,0.624527,0.715454,-9.498309,0.033445,-0.058490,-0.055894
0.982410,0.483350,0.738186,-9.621540,0.026573,-0.048258,-0.064294
0.990645,0.579063,0.758525,-9.509077,0.035277,-0.065057,-0.069028
0.999627,0.593420,0.732204,-9.421739,0.031918,-0.069486,-0.058796
1.007906,0.593420,0.726222,-9.567701,0.032376,-0.078802,-0.043066
1.016143,0.545564,0.726222,-9.567701,0.037110,-0.099724,-0.025504
1.024737,0.532403,0.750150,-9.561719,0.037110,-0.099724,-0.025504
1.032972,0.641276,0.739382,-9.509077,0.035583,-0.113621,-0.012675
1.041291,0.601795,0.751346,-9.540184,0.032834,-0.115759,-0.007025
1.049503,0.459422,0.741775,-9.588040,0.038943,-0.123853,-0.017410
1.060564,0.479761,0.707079,-9.509077,0.038026,-0.121715,-0.031154
1.070142,0.521635,0.807578,-9.541380,0.031460,-0.109498,-0.047189
1.078335,0.458226,0.766900,-9.594022,0.029322,-0.098502,-0.065668
1.085827,0.458226,0.766900,-9.594022,0.029322,-0.098502,-0.078496
1.093242,0.521635,0.800399,-9.506684,0.028711,-0.063225,-0.078496
1.101058,0.448654,0.948754,-9.488738,0.027489,-0.054978,-0.073762
1.108537,0.652044,0.995414,-9.493524,0.029474,-0.060323,-0.056810
1.115959,0.652044,0.995414,-9.493524,0.029474,-0.067653,-0.045357
1.123678,0.659223,1.028914,-9.500702,0.033445,-0.067653,-0.045357
1.131330,0.626920,0.921237,-9.568898,0.037110,-0.095448,-0.036957
1.138829,0.549153,0.795614,-9.501899,0.042455,-0.114843,-0.035125
1.146353,0.549153,0.795614,-9.501899,0.039095,-0.119730,-0.038637
1.153814,0.409173,0.738186,-9.582058,0.039095,-0.119730,-0.038637
1.161354,0.388834,0.708275,-9.546166,0.043371,-0.121868,-0.041081
1.168844,0.459422,0.746561,-9.541380,0.034208,-0.095295,-0.034667
1.177042,0.459422,0.746561,-9.541380,0.026114,-0.069791,-0.027947
1.185403,0.537189,0.796810,-9.536594,0.026114,-0.069791,-0.028863
1.193591,0.586242,0.874577,-9.533005,0.025962,-0.067348,-0.028863
1.201831,0.563510,0.927219,-9.562916,0.030849,-0.081398,-0.032223
1.210127,0.530010,0.916451,-9.518648,0.039706,-0.098807,-0.027184
1.218322,0.492921,0.869791,-9.489934,0.040164,-0.109650,-0.014813
1.226792,0.492921,0.869791,-9.489934,0.035430,-0.104916,0.000000
1.235045,0.503689,0.847059,-9.543773,0.035430,-0.104916,0.000000
1.243306,0.492921,0.813560,-9.525827,0.036957,-0.107512,0.007636
1.251534,0.577867,0.788435,-9.430114,0.043677,-0.111025,-0.001222
1.259684,0.477368,0.789631,-9.556933,0.045357,-0.118355,-0.011606
1.268051,0.646062,0.766900,-9.505488,0.036805,-0.103084,-0.018173
1.276747,0.646062,0.766900,-9.505488,0.029780,-0.092393,-0.032376
1.285348,0.464208,0.754936,-9.547362,0.029780,-0.068875,-0.036041
1.293537,0.495314,0.748953,-9.549755,0.025656,-0.068875,-0.036041
1.301747,0.538385,0.745364,-9.546166,0.029016,-0.067806,-0.041692
1.310123,0.606581,0.769292,-9.576076,0.034514,-0.080023,-0.047495
1.318382,0.592224,0.781257,-9.497113,0.032529,-0.082161,-0.046120
1.326915,0.592224,0.781257,-9.601201,0.025351,-0.082620,-0.038637
1.335206,0.463011,0.802792,-9.601201,0.025351,-0.082620,-0.035583
1.343431,0.480957,0.837488,-9.480363,0.035583,-0.096975,-0.035583
1.351707,0.552742,0.869791,-9.568898,0.038485,-0.107665,-0.033903
1.359879,0.519243,0.857827,-9.461221,0.037721,-0.097891,-0.031918
1.368205,0.515653,0.841077,-9.559326,0.036346,-0.093768,-0.033445
1.376647,0.515653,0.841077,-9.559326,0.028863,-0.081856,-0.031001
1.384946,0.522832,0.839881,-9.588040,0.028863,-0.081856,-0.033598
1.393862,0.594616,0.815953,-9.570094,0.032223,-0.085979,-0.033598
1.402058,0.525225,0.751346,-9.524630,0.030085,-0.076664,-0.034361
1.410356,0.522832,0.746561,-9.577272,0.035125,-0.085368,-0.037263
1.418518,0.501296,0.754936,-9.530612,0.031307,-0.081245,-0.031612
1.426837,0.501296,0.754936,-9.552148,0.028405,-0.082009,-0.025656
1.435125,0.563510,0.787239,-9.552148,0.028405,-0.094073,-0.028863
1.443321,0.530010,0.796810,-9.518648,0.033598,-0.094073,-0.028863
1.451648,0.503689,0.843470,-9.579665,0.039859,-0.109803,-0.032376
1.459860,0.457029,0.825524,-9.525827,0.032223,-0.100793,-0.029322
1.468129,0.546760,0.824327,-9.544969,0.030391,-0.084452,-0.026878
1.476564,0.546760,0.824327,-9.611968,0.031460,-0.087506,-0.032529
1.484920,0.530010,0.837488,-9.611968,0.031460,-0.087506,-0.038179
1.493214,0.465404,0.839881,-9.469595,0.027642,-0.075595,-0.038179
1.501393,0.564706,0.790828,-9.511470,0.037721,-0.092699,-0.040623
1.509626,0.538385,0.812363,-9.568898,0.031918,-0.080940,-0.034056
1.518174,0.515653,0.794417,-9.524630,0.032223,-0.083536,-0.032070
1.526477,0.515653,0.794417,-9.572487,0.039401,-0.099571,-0.032834
1.534860,0.525225,0.794417,-9.572487,0.039401,-0.099571,-0.028100
1.543044,0.594616,0.766900,-9.547362,0.038026,-0.101251,-0.028100
1.551362,0.562313,0.784846,-9.505488,0.034208,-0.095295,-0.027184
1.559571,0.520439,0.786042,-9.553344,0.027794,-0.086590,-0.026420
1.567809,0.512064,0.788435,-9.517452,0.026114,-0.084605,-0.031765
1.576336,0.512064,0.788435,-9.558130,0.035430,-0.095142,-0.046731
1.585381,0.491725,0.772882,-9.558130,0.036194,-0.088575,-0.049175
1.593669,0.506082,0.789631,-9.522238,0.036194,-0.088575,-0.049175
1.601864,0.526421,0.814756,-9.550951,0.039859,-0.094531,-0.052993
1.610141,0.561117,0.829113,-9.531809,0.032070,-0.081856,-0.046426
1.618663,0.541974,0.829113,-9.573683,0.032681,-0.083841,-0.041844
1.626963,0.524028,0.806381,-9.553344,0.028711,-0.079565,-0.031612
1.635315,0.524028,0.806381,-9.553344,0.028253,-0.082772,-0.028253
1.643498,0.527617,0.836291,-9.493524,0.028253,-0.082772,-0.028253
1.651736,0.532403,0.826720,-9.553344,0.036499,-0.097128,-0.030238
1.660065,0.545564,0.829113,-9.516255,0.036652,-0.095906,-0.029780
1.668212,0.516850,0.814756,-9.525827,0.040164,-0.103542,-0.037721
1.676584,0.516850,0.796810,-9.533005,0.034819,-0.094837,-0.043524
1.685024,0.498904,0.796810,-9.533005,0.034514,-0.089644,-0.049786
1.693265,0.558724,0.803988,-9.523434,0.034514,-0.089644,-0.049786
1.701470,0.562313,0.758525,-9.676575,0.027031,-0.076511,-0.050855
1.709592,0.570688,0.766900,-9.521041,0.028558,-0.066890,-0.061850
1.717881,0.486939,0.792024,-9.504291,0.028100,-0.068875,-0.066584
1.726064,0.486939,0.792024,-9.504291,0.040928,-0.094226,-0.060323
1.734561,0.489332,0.821935,-9.568898,0.040928,-0.094226,-0.042608
1.742753,0.553938,0.829113,-9.541380,0.034514,-0.088881,-0.042608
1.750945,0.576670,0.880559,-9.542577,0.031918,-0.090561,-0.034208
1.759188,0.500100,0.890130,-9.535398,0.030543,-0.094379,-0.027184
1.767320,0.530010,0.836291,-9.533005,0.029627,-0.095142,-0.028711
1.775660,0.530010,0.836291,-9.533005,0.036957,-0.104305,-0.036346
1.784050,0.521635,0.825524,-9.460024,0.036957,-0.104305,-0.036346
1.792888,0.482154,0.800399,-9.556933,0.038026,-0.102320,-0.047953
1.801136,0.464208,0.798006,-9.503095,0.031765,-0.081245,-0.046731
1.809278,0.508475,0.831506,-9.500702,0.032529,-0.080787,-0.039248
1.817555,0.598206,0.833899,-9.588040,0.035736,-0.091477,-0.025809
1.825756,0.598206,0.833899,-9.588040,0.034361,-0.097738,-0.015119
1.834704,0.644866,0.811167,-9.517452,0.034361,-0.103847,-0.022755
1.842962,0.553938,0.769292,-9.538987,0.037568,-0.103847,-0.022755
1.851173,0.471386,0.802792,-9.555737,0.034361,-0.099724,-0.031307
1.859536,0.480957,0.788435,-9.568898,0.026114,-0.090713,-0.035125
1.867744,0.522832,0.800399,-9.546166,0.025045,-0.082467,-0.046120
1.876033,0.522832,0.800399,-9.511470,0.028558,-0.072540,-0.057421
1.884454,0.543171,0.844666,-9.511470,0.028558,-0.079107,-0.061545
1.892707,0.522832,0.839881,-9.527023,0.036805,-0.079107,-0.061545
1.901048,0.577867,0.843470,-9.534202,0.037568,-0.075136,-0.054672
1.909218,0.582652,0.839881,-9.538987,0.033598,-0.077580,-0.034056
1.917574,0.564706,0.772882,-9.535398,0.042455,-0.105527,-0.014355
1.925896,0.564706,0.772882,-9.528220,0.039554,-0.115759,0.004581
1.934319,0.503689,0.783649,-9.528220,0.039554,-0.132405,0.013897
1.942730,0.491725,0.753739,-9.513863,0.040928,-0.132405,0.013897
1.950917,0.528814,0.764507,-9.620343,0.041997,-0.130114,0.018021
1.959223,0.549153,0.757328,-9.570094,0.041844,-0.130572,0.008247
1.967450,0.506082,0.841077,-9.572487,0.040012,-0.116828,-0.015424
1.975682,0.506082,0.841077,-9.572487,0.031001,-0.096211,-0.032834
1.984223,0.443869,0.879362,-9.531809,0.031001,-0.077122,-0.049022
1.992537,0.472582,0.809970,-9.571290,0.024129,-0.077122,-0.049022
2.000853,0.457029,0.843470,-9.495916,0.027947,-0.056963,-0.064752
2.009078,0.558724,0.869791,-9.516255,0.026267,-0.047189,-0.061850
2.017323,0.631705,0.866202,-9.506684,0.025351,-0.049175,-0.055741
2.025566,0.631705,0.866202,-9.506684,0.023213,-0.051313,-0.047495
2.033921,0.602991,0.836291,-9.505488,0.023213,-0.051313,-0.041539
2.042345,0.583849,0.751346,-9.533005,0.029322,-0.076969,-0.041539
2.050562,0.509671,0.734597,-9.527023,0.040317,-0.102931,-0.034514
2.059141,0.494118,0.720240,-9.607183,0.043371,-0.117133,-0.027184
2.068613,0.458226,0.708275,-9.529416,0.039554,-0.111483,-0.017257
2.077205,0.522832,0.723829,-9.560523,0.042608,-0.122326,-0.018631
2.085710,0.522832,0.723829,-9.529416,0.041692,-0.121868,-0.027794
2.093236,0.532403,0.807578,-9.529416,0.041692,-0.121868,-0.027794
2.101262,0.539581,0.837488,-9.534202,0.032376,-0.100945,-0.034208
2.108799,0.447458,0.869791,-9.467203,0.030543,-0.091172,-0.042455
2.116227,0.506082,0.874577,-9.580862,0.034361,-0.083841,-0.054520
2.123927,0.506082,0.874577,-9.580862,0.034361,-0.083841,-0.057879
2.131391,0.533599,0.887737,-9.542577,0.035888,-0.081092,-0.057879
2.139942,0.601795,0.849452,-9.579665,0.035125,-0.083230,-0.056352
2.147556,0.552742,0.821935,-9.534202,0.031918,-0.071166,-0.059865
2.154983,0.552742,0.821935,-9.534202,0.025809,-0.062003,-0.058490
2.162494,0.510868,0.817149,-9.567701,0.025809,-0.062003,-0.058490
2.170001,0.527617,0.719043,-9.529416,0.031001,-0.080329,-0.051160
2.178958,0.552742,0.727418,-9.577272,0.035583,-0.092241,-0.043219
2.188294,0.500100,0.719043,-9.511470,0.040928,-0.102320,-0.033445
2.196560,0.539581,0.763310,-9.513863,0.038637,-0.106901,-0.022144
2.204829,0.539581,0.763310,-9.513863,0.034667,-0.107970,-0.017410
2.213106,0.521635,0.813560,-9.538987,0.034667,-0.107970,-0.017410
2.221355,0.512064,0.856630,-9.549755,0.030238,-0.101709,-0.012370
2.229713,0.485743,0.912862,-9.529416,0.037874,-0.112094,-0.024740
2.238154,0.470190,0.929612,-9.524630,0.032987,-0.095448,-0.027642
2.246525,0.497707,0.917647,-9.512666,0.033292,-0.093004,-0.028558
2.254736,0.497707,0.917647,-9.512666,0.039706,-0.094226,-0.029932
2.263005,0.552742,0.902094,-9.523434,0.039706,-0.094226,-0.029932
2.271367,0.620937,0.844666,-9.633504,0.036957,-0.084299,-0.029016
2.279635,0.535992,0.811167,-9.591629,0.030238,-0.077274,-0.025656
2.288149,0.534796,0.760918,-9.576076,0.033903,-0.084910,-0.023671
2.296450,0.534796,0.715454,-9.504291,0.034056,-0.091630,-0.023976
2.304683,0.534796,0.715454,-9.504291,0.036805,-0.099876,-0.027489
2.312944,0.526421,0.707079,-9.572487,0.036805,-0.099876,-0.027489
2.321109,0.515653,0.751346,-9.590433,0.033292,-0.096517,-0.029780
2.329466,0.512064,0.796810,-9.559326,0.028558,-0.087201,-0.032834
2.338048,0.569492,0.824327,-9.586844,0.029016,-0.086285,-0.035277
2.346444,0.520439,0.845863,-9.506684,0.029016,-0.083078,-0.037110
2.354704,0.520439,0.845863,-9.506684,0.032834,-0.089492,-0.037415
2.362915,0.518046,0.888934,-9.568898,0.032834,-0.089492,-0.037415
2.371275,0.521635,0.904487,-9.530612,0.027794,-0.079107,-0.029322
2.379597,0.519243,0.865005,-9.515059,0.035888,-0.089492,-0.024893
2.388028,0.541974,0.831506,-9.509077,0.043066,-0.104763,-0.023976
2.396354,0.492921,0.774078,-9.632307,0.031765,-0.087048,-0.016188
2.404531,0.492921,0.774078,-9.632307,0.032529,-0.091324,-0.014508
2.412829,0.495314,0.753739,-9.548559,0.032529,-0.091324,-0.014508
2.421000,0.557528,0.757328,-9.528220,0.039401,-0.105985,-0.020311
2.429271,0.519243,0.754936,-9.566505,0.034208,-0.097128,-0.024435
2.437658,0.500100,0.754936,-9.522238,0.034819,-0.099418,-0.029169
2.446033,0.532403,0.799203,-9.576076,0.034208,-0.097738,-0.031460
2.454335,0.532403,0.799203,-9.576076,0.035430,-0.096822,-0.031460
2.462533,0.520439,0.847059,-9.560523,0.035430,-0.096822,-0.031460
2.470768,0.531207,0.861416,-9.550951,0.027947,-0.081245,-0.030085
2.479248,0.568295,0.854238,-9.500702,0.032987,-0.086285,-0.034056
2.488679,0.513260,0.861416,-9.527023,0.032070,-0.087659,-0.036652
2.497114,0.501296,0.806381,-9.527023,0.028558,-0.078802,-0.032834
2.505326,0.501296,0.817149,-9.556933,0.033292,-0.087048,-0.031307
2.513636,0.532403,0.817149,-9.556933,0.038485,-0.097433,-0.031460
2.521879,0.556331,0.803988,-9.534202,0.038485,-0.097433,-0.031460
2.530113,0.515653,0.786042,-9.505488,0.044135,-0.107665,-0.035736
2.539035,0.515653,0.781257,-9.518648,0.031918,-0.092088,-0.027031
2.547412,0.537189,0.789631,-9.550951,0.032681,-0.093004,-0.027031
2.556012,0.492921,0.777667,-9.528220,0.037568,-0.100335,-0.031001
2.564192,0.492921,0.777667,-9.528220,0.033292,-0.093310,-0.032376
2.572432,0.532403,0.793221,-9.522238,0.033292,-0.093310,-0.032376
2.580702,0.506082,0.812363,-9.533005,0.033445,-0.092546,-0.034514
2.589625,0.513260,0.813560,-9.477970,0.032834,-0.088270,-0.036957
2.598133,0.522832,0.815953,-9.574880,0.039095,-0.097128,-0.043371
2.606327,0.526421,0.802792,-9.488738,0.028405,-0.079107,-0.035583
2.614627,0.526421,0.802792,-9.488738,0.033598,-0.087506,-0.038790
2.622814,0.540778,0.829113,-9.544969,0.033598,-0.087506,-0.036652
2.630951,0.559920,0.814756,-9.548559,0.033598,-0.089644,-0.036652
2.639517,0.547956,0.781257,-9.515059,0.037263,-0.096517,-0.037568
2.648106,0.515653,0.788435,-9.530612,0.038637,-0.103236,-0.039859
2.656570,0.519243,0.799203,-9.560523,0.035736,-0.096669,-0.039554
2.664805,0.519243,0.799203,-9.568898,0.028405,-0.082925,-0.037110
2.673086,0.484547,0.789631,-9.568898,0.028405,-0.087354,-0.040012
2.681458,0.496511,0.763310,-9.500702,0.031612,-0.087354,-0.040012
2.690067,0.534796,0.808774,-9.552148,0.033139,-0.085979,-0.038332
2.698597,0.543171,0.806381,-9.550951,0.032987,-0.086132,-0.037568
2.707121,0.521635,0.809970,-9.518648,0.034208,-0.091783,-0.036346
2.716101,0.525225,0.837488,-9.573683,0.039706,-0.101862,-0.037415
2.724358,0.525225,0.837488,-9.573683,0.038943,-0.100487,-0.034972
2.732531,0.525225,0.818345,-9.495916,0.038943,-0.100487,-0.032529
2.740958,0.528814,0.823131,-9.552148,0.037263,-0.097586,-0.032529
2.749309,0.506082,0.819542,-9.572487,0.029932,-0.088270,-0.028558
2.757644,0.491725,0.820738,-9.578469,0.036194,-0.093768,-0.033139
2.766024,0.525225,0.803988,-9.554541,0.030238,-0.083230,-0.029016
2.774217,0.525225,0.803988,-9.554541,0.035583,-0.094531,-0.032987
2.782513,0.520439,0.798006,-9.506684,0.035583,-0.094531,-0.041997
2.790896,0.514457,0.806381,-9.525827,0.041692,-0.105832,-0.041997
2.799483,0.595813,0.748953,-9.650254,0.034208,-0.095295,-0.035583
2.807770,0.491725,0.788435,-9.607183,0.039095,-0.100945,-0.038485
2.816113,0.546760,0.849452,-9.568898,0.034972,-0.088423,-0.028863
2.824453,0.546760,0.849452,-9.558130,0.033903,-0.090255,-0.025656
2.832640,0.546760,0.856630,-9.558130,0.033903,-0.090255,-0.030543
2.841122,0.550349,0.803988,-9.529416,0.032681,-0.091019,-0.030543
2.849633,0.504886,0.780060,-9.524630,0.037568,-0.102014,-0.036499
2.857914,0.489332,0.799203,-9.511470,0.037721,-0.104153,-0.039554
2.866219,0.532403,0.805185,-9.553344,0.029016,-0.081398,-0.031612
2.874444,0.532403,0.805185,-9.550951,0.028711,-0.078343,-0.032376
2.882869,0.534796,0.818345,-9.550951,0.028711,-0.089644,-0.039554
2.891286,0.527617,0.802792,-9.507881,0.035583,-0.089644,-0.039554
2.899868,0.525225,0.836291,-9.487542,0.039248,-0.096975,-0.040775
2.908267,0.540778,0.814756,-9.513863,0.032070,-0.089339,-0.031612
2.916608,0.519243,0.818345,-9.556933,0.033445,-0.090713,-0.029780
2.925042,0.522832,0.803988,-9.542577,0.037263,-0.096059,-0.032681
2.933282,0.522832,0.803988,-9.542577,0.037874,-0.099876,-0.034667
2.941690,0.549153,0.808774,-9.567701,0.037874,-0.099876,-0.034667
2.950264,0.537189,0.812363,-9.562916,0.036041,-0.097433,-0.035888
2.958570,0.532403,0.802792,-9.541380,0.030696,-0.085063,-0.036957
2.967000,0.521635,0.809970,-9.584451,0.028558,-0.079412,-0.038179
2.975184,0.513260,0.800399,-9.548559,0.031460,-0.080176,-0.039859
2.983605,0.513260,0.800399,-9.548559,0.038332,-0.092546,-0.044899
2.992591,0.526421,0.818345,-9.509077,0.038332,-0.089492,-0.043677
3.001134,0.522832,0.817149,-9.547362,0.036499,-0.089492,-0.043677
3.009479,0.516850,0.831506,-9.566505,0.034819,-0.090255,-0.037415
3.017737,0.515653,0.821935,-9.518648,0.027794,-0.083078,-0.026573
3.026046,0.504886,0.813560,-9.528220,0.030696,-0.087354,-0.025045
3.034212,0.504886,0.813560,-9.542577,0.033598,-0.095295,-0.026267
3.042652,0.532403,0.817149,-9.542577,0.035125,-0.099571,-0.028405
3.051137,0.503689,0.806381,-9.517452,0.035125,-0.099571,-0.028405
3.060574,0.547956,0.792024,-9.601201,0.037721,-0.102014,-0.031460
3.069734,0.512064,0.784846,-9.607183,0.035430,-0.095448,-0.036041
3.078776,0.522832,0.820738,-9.534202,0.028405,-0.076664,-0.032987
3.087256,0.518046,0.831506,-9.571290,0.028405,-0.076053,-0.031307
3.095630,0.539581,0.820738,-9.552148,0.030238,-0.080634,-0.031154
3.104042,0.539581,0.820738,-9.572487,0.038179,-0.096975,-0.036194
3.112249,0.552742,0.826720,-9.572487,0.038179,-0.092852,-0.028711
3.120406,0.520439,0.807578,-9.559326,0.035430,-0.092852,-0.028711
3.128702,0.535992,0.788435,-9.546166,0.037568,-0.098349,-0.027947
3.136869,0.565903,0.794417,-9.504291,0.034056,-0.095448,-0.026420
3.145681,0.514457,0.777667,-9.518648,0.028253,-0.087506,-0.026573
3.154012,0.514457,0.777667,-9.553344,0.034819,-0.097280,-0.033139
3.162192,0.544367,0.798006,-9.553344,0.034819,-0.088117,-0.029169
3.170618,0.509671,0.789631,-9.530612,0.029169,-0.088117,-0.029169
3.178864,0.491725,0.802792,-9.525827,0.034208,-0.082925,-0.038790
3.187180,0.527617,0.838684,-9.543773,0.035888,-0.093768,-0.042150
3.195552,0.579063,0.836291,-9.550951,0.031460,-0.083689,-0.033750
3.203931,0.579063,0.836291,-9.564112,0.035888,-0.089950,-0.037415
3.212272,0.494118,0.860220,-9.564112,0.035888,-0.080634,-0.027642
3.220442,0.490529,0.809970,-9.524630,0.030085,-0.080634,-0.027642
3.228697,0.559920,0.811167,-9.538987,0.040164,-0.105069,-0.030849
3.236930,0.546760,0.776471,-9.527023,0.040012,-0.102473,-0.027336
3.245201,0.513260,0.813560,-9.548559,0.041539,-0.106443,-0.031612
3.253612,0.513260,0.813560,-9.585647,0.029169,-0.090103,-0.030543
3.261778,0.500100,0.770489,-9.585647,0.029169,-0.090103,-0.034819
3.270177,0.508475,0.778864,-9.512666,0.032070,-0.085674,-0.034819
3.278367,0.522832,0.800399,-9.528220,0.035736,-0.091477,-0.040928
3.286667,0.538385,0.825524,-9.555737,0.036346,-0.092393,-0.037263
3.295049,0.555135,0.823131,-9.504291,0.035277,-0.094531,-0.034514
3.303497,0.555135,0.823131,-9.607183,0.035430,-0.096211,-0.034514
3.311804,0.496511,0.826720,-9.607183,0.035430,-0.096211,-0.028405
3.320014,0.525225,0.815953,-9.515059,0.034056,-0.094226,-0.028405
3.328213,0.546760,0.829113,-9.553344,0.036957,-0.098655,-0.033598
3.336467,0.531207,0.795614,-9.481560,0.033903,-0.094073,-0.036041
3.344610,0.509671,0.801596,-9.560523,0.035736,-0.097586,-0.041844
3.353038,0.509671,0.801596,-9.560523,0.034514,-0.087354,-0.042150
3.361195,0.521635,0.783649,-9.538987,0.034514,-0.087354,-0.042150
3.369388,0.559920,0.790828,-9.534202,0.034056,-0.083841,-0.042608
3.377851,0.562313,0.787239,-9.516255,0.037263,-0.093157,-0.047495
3.386495,0.510868,0.803988,-9.506684,0.027489,-0.079565,-0.039554
3.396147,0.504886,0.806381,-9.540184,0.026420,-0.081245,-0.035277
3.404727,0.484547,0.807578,-9.530612,0.021686,-0.071319,-0.026573
3.413050,0.484547,0.807578,-9.530612,0.026725,-0.080176,-0.024435
3.421295,0.512064,0.854238,-9.576076,0.026725,-0.080176,-0.024435
3.429492,0.537189,0.847059,-9.541380,0.032681,-0.089339,-0.024587
3.438073,0.561117,0.837488,-9.589237,0.038179,-0.101862,-0.029932
3.446327,0.504886,0.802792,-9.582058,0.032834,-0.093462,-0.031154
3.454953,0.521635,0.777667,-9.522238,0.031307,-0.088728,-0.031307
3.463171,0.521635,0.777667,-9.522238,0.030696,-0.083689,-0.030543
3.471400,0.518046,0.808774,-9.576076,0.030696,-0.083689,-0.025809
3.479697,0.571885,0.824327,-9.610772,0.029016,-0.080481,-0.025809
3.487960,0.581456,0.796810,-9.556933,0.034056,-0.089950,-0.031460
3.496337,0.532403,0.800399,-9.530612,0.033598,-0.094531,-0.033750
3.504766,0.520439,0.807578,-9.530612,0.033750,-0.093462,-0.033292
3.513034,0.520439,0.807578,-9.530612,0.035277,-0.093921,-0.030391
3.521307,0.532403,0.813560,-9.503095,0.035277,-0.093921,-0.031307
3.529532,0.551546,0.831506,-9.558130,0.034514,-0.092241,-0.031307
3.537865,0.526421,0.823131,-9.558130,0.032529,-0.089186,-0.034208
3.546049,0.519243,0.789631,-9.538987,0.031307,-0.088423,-0.035277
3.554561,0.497707,0.788435,-9.536594,0.039095,-0.100793,-0.040470
3.562937,0.497707,0.788435,-9.536594,0.036194,-0.094379,-0.040928
3.571141,0.503689,0.787239,-9.543773,0.036194,-0.094379,-0.037110
3.579470,0.527617,0.795614,-9.473185,0.030085,-0.084452,-0.037110
3.587743,0.544367,0.809970,-9.558130,0.031918,-0.085979,-0.035125
3.596047,0.527617,0.808774,-9.544969,0.036499,-0.093462,-0.036805
3.604792,0.495314,0.815953,-9.485149,0.035888,-0.093310,-0.036805
3.612990,0.495314,0.815953,-9.541380,0.036194,-0.097586,-0.033292
3.621324,0.527617,0.807578,-9.541380,0.036194,-0.097586,-0.029780
3.629511,0.535992,0.809970,-9.501899,0.034819,-0.091019,-0.029780
3.637811,0.516850,0.807578,-9.590433,0.033598,-0.090866,-0.028558
3.646077,0.540778,0.777667,-9.504291,0.032223,-0.092241,-0.028405
3.654589,0.534796,0.775275,-9.547362,0.030391,-0.089797,-0.029627
3.662915,0.534796,0.775275,-9.543773,0.038790,-0.101098,-0.034819
3.671137,0.495314,0.806381,-9.543773,0.038790,-0.101098,-0.034514
3.679444,0.494118,0.794417,-9.501899,0.038026,-0.098655,-0.034514
3.687772,0.524028,0.823131,-9.518648,0.032834,-0.090103,-0.029780
3.696058,0.543171,0.836291,-9.538987,0.029932,-0.085674,-0.029169
3.704506,0.545564,0.808774,-9.533005,0.040164,-0.101251,-0.039706
3.712712,0.545564,0.808774,-9.533005,0.036957,-0.094531,-0.037874
3.721153,0.533599,0.795614,-9.544969,0.036957,-0.094531,-0.033903
3.729349,0.513260,0.798006,-9.500702,0.029780,-0.081245,-0.033903
3.737565,0.504886,0.788435,-9.568898,0.027336,-0.078954,-0.034056
3.745849,0.531207,0.758525,-9.498309,0.030238,-0.081856,-0.034819
3.754353,0.528814,0.811167,-9.550951,0.036652,-0.094379,-0.036805
3.762752,0.528814,0.811167,-9.567701,0.032223,-0.086743,-0.031001
3.770955,0.551546,0.801596,-9.567701,0.032223,-0.086743,-0.031460
3.779273,0.516850,0.833899,-9.536594,0.037110,-0.100487,-0.031460
3.787625,0.543171,0.809970,-9.506684,0.036194,-0.098807,-0.028405
3.796452,0.521635,0.836291,-9.550951,0.038790,-0.102778,-0.029474
3.805361,0.532403,0.803988,-9.506684,0.038790,-0.103694,-0.030696
3.813597,0.525225,0.796810,-9.530612,0.035125,-0.096517,-0.029474
3.821858,0.525225,0.796810,-9.530612,0.036499,-0.096669,-0.032529
3.830168,0.480957,0.811167,-9.540184,0.036499,-0.096669,-0.032529
3.838397,0.538385,0.833899,-9.540184,0.032529,-0.085674,-0.031765
3.846730,0.539581,0.825524,-9.552148,0.031001,-0.082009,-0.032529
3.855289,0.534796,0.814756,-9.568898,0.033139,-0.085216,-0.037263
3.863608,0.545564,0.794417,-9.510273,0.038485,-0.091172,-0.038179
3.871957,0.545564,0.794417,-9.510273,0.034361,-0.087506,-0.034208
3.880216,0.527617,0.805185,-9.509077,0.034361,-0.087506,-0.034208
3.888585,0.532403,0.818345,-9.598808,0.032070,-0.088117,-0.030849
3.896775,0.538385,0.798006,-9.550951,0.031001,-0.088575,-0.029169
3.905262,0.508475,0.792024,-9.525827,0.034056,-0.093004,-0.028711
3.913525,0.527617,0.801596,-9.589237,0.034972,-0.095600,-0.032529
3.921821,0.527617,0.801596,-9.589237,0.028711,-0.084299,-0.028711
3.930235,0.514457,0.794417,-9.542577,0.028711,-0.084299,-0.028711
3.938472,0.532403,0.803988,-9.550951,0.032834,-0.093157,-0.033139
3.946800,0.519243,0.817149,-9.530612,0.028711,-0.082161,-0.032529
3.955176,0.531207,0.849452,-9.553344,0.034056,-0.091172,-0.037110
3.963474,0.522832,0.813560,-9.554541,0.033445,-0.087965,-0.037415
3.971754,0.522832,0.813560,-9.554541,0.031154,-0.083078,-0.036041
3.984119,0.543171,0.800399,-9.552148,0.035125,-0.091935,-0.036346
3.992644,0.543171,0.787239,-9.602397,0.034361,-0.087354,-0.035736
4.000895,0.552742,0.787239,-9.602397,0.029322,-0.082467,-0.031154
4.010295,0.562313,0.786042,-9.554541,0.029322,-0.082467,-0.031154
4.018532,0.513260,0.805185,-9.548559,0.040012,-0.104153,-0.037568
4.026793,0.496511,0.786042,-9.536594,0.042302,-0.108887,-0.038637
4.035057,0.512064,0.792024,-9.572487,0.037721,-0.099113,-0.039706
4.043267,0.557528,0.817149,-9.550951,0.035583,-0.094990,-0.038179
4.051583,0.557528,0.817149,-9.550951,0.036652,-0.096364,-0.036499
4.061540,0.549153,0.824327,-9.510273,0.035736,-0.093004,-0.035125
4.070153,0.532403,0.821935,-9.503095,0.035736,-0.093004,-0.035125
4.078492,0.435494,0.893719,-9.495916,0.037568,-0.095753,-0.039706
4.086793,0.428315,0.832702,-9.462417,0.039248,-0.099266,-0.042150
4.095184,0.527617,0.832702,-9.533005,0.038790,-0.091477,-0.036652
4.103636,0.607777,0.826720,-9.584451,0.034056,-0.085063,-0.029016
4.112305,0.607777,0.826720,-9.572487,0.036957,-0.091172,-0.036041
4.120527,0.557528,0.802792,-9.572487,0.036957,-0.091172,-0.039554
4.129238,0.530010,0.722632,-9.491131,0.035888,-0.096211,-0.039554
4.137610,0.457029,0.774078,-9.546166,0.034972,-0.095753,-0.037874
4.145988,0.463011,0.812363,-9.556933,0.028405,-0.086590,-0.026878
4.155017,0.587438,0.823131,-9.525827,0.031918,-0.090866,-0.022755
4.163483,0.597009,0.837488,-9.529416,0.033598,-0.091630,-0.028863
4.172503,0.597009,0.849452,-9.543773,0.035888,-0.093921,-0.034514
4.180820,0.491725,0.849452,-9.543773,0.030085,-0.089339,-0.033903
4.189092,0.496511,0.850648,-9.580862,0.030085,-0.089339,-0.033903
4.197198,0.541974,0.790828,-9.541380,0.037568,-0.096669,-0.034514
4.205326,0.530010,0.818345,-9.533005,0.034361,-0.084605,-0.032223
4.213060,0.558724,0.824327,-9.555737,0.034667,-0.087048,-0.032987
4.220505,0.558724,0.824327,-9.555737,0.034667,-0.087048,-0.031307
4.227918,0.576670,0.802792,-9.565308,0.029474,-0.080634,-0.031307
4.235448,0.518046,0.778864,-9.571290,0.028558,-0.081245,-0.031001
4.242870,0.508475,0.800399,-9.517452,0.030849,-0.087506,-0.029932
4.250613,0.508475,0.800399,-9.517452,0.030849,-0.088270,-0.029322
4.258448,0.527617,0.798006,-9.536594,0.029627,-0.088270,-0.029322
4.266002,0.534796,0.817149,-9.543773,0.037415,-0.098960,-0.035277
4.273554,0.512064,0.844666,-9.546166,0.028711,-0.084452,-0.029169
4.282771,0.538385,0.839881,-9.591629,0.036041,-0.093768,-0.033598
4.290961,0.538385,0.839881,-9.591629,0.038485,-0.096975,-0.034514
4.299182,0.553938,0.820738,-9.556933,0.038485,-0.096975,-0.034514
4.308161,0.484547,0.796810,-9.577272,0.035736,-0.090713,-0.035277
4.316668,0.546760,0.790828,-9.523434,0.031460,-0.086285,-0.032834
4.324899,0.502493,0.788435,-9.518648,0.037110,-0.098502,-0.038943
4.333839,0.496511,0.789631,-9.580862,0.032834,-0.089950,-0.036652
4.342153,0.496511,0.786042,-9.512666,0.034972,-0.093157,-0.038485
4.350374,0.515653,0.786042,-9.512666,0.034972,-0.097128,-0.037874
4.359417,0.539581,0.820738,-9.561719,0.035888,-0.097128,-0.037874
4.367769,0.518046,0.839881,-9.519845,0.037874,-0.098502,-0.036346
4.376139,0.528814,0.832702,-9.537791,0.033903,-0.091324,-0.033139
4.384518,0.527617,0.851845,-9.562916,0.033139,-0.087812,-0.031001
4.393560,0.531207,0.819542,-9.524630,0.038026,-0.094531,-0.035125
4.401417,0.531207,0.819542,-9.524630,0.036499,-0.092393,-0.031765
4.409566,0.524028,0.792024,-9.540184,0.036499,-0.092393,-0.031765
4.417904,0.531207,0.786042,-9.530612,0.036652,-0.095753,-0.034208
4.425389,0.531207,0.776471,-9.550951,0.033139,-0.089644,-0.032834
4.432819,0.515653,0.770489,-9.555737,0.036805,-0.096211,-0.036957
4.440444,0.515653,0.770489,-9.555737,0.036805,-0.092088,-0.034208
4.447873,0.553938,0.783649,-9.547362,0.033598,-0.092088,-0.034208
4.455376,0.561117,0.824327,-9.535398,0.026573,-0.077427,-0.029627
4.463139,0.544367,0.847059,-9.540184,0.030391,-0.087048,-0.032834
4.470627,0.544367,0.847059,-9.540184,0.031154,-0.089492,-0.030085
4.478147,0.533599,0.835095,-9.523434,0.031154,-0.089492,-0.030085
4.485677,0.520439,0.821935,-9.519845,0.036499,-0.099418,-0.031612
4.493146,0.508475,0.803988,-9.528220,0.036346,-0.095753,-0.032987
4.501304,0.508475,0.803988,-9.528220,0.037110,-0.097738,-0.033903
4.509664,0.530010,0.789631,-9.553344,0.037110,-0.097738,-0.032834
4.518180,0.507278,0.781257,-9.540184,0.033139,-0.089797,-0.032834
4.526421,0.518046,0.787239,-9.573683,0.033292,-0.087354,-0.035736
4.534571,0.518046,0.782453,-9.576076,0.041233,-0.101709,-0.042150
4.542879,0.549153,0.801596,-9.534202,0.036957,-0.093462,-0.039095
4.551040,0.549153,0.801596,-9.534202,0.034208,-0.091172,-0.036346
4.559385,0.543171,0.819542,-9.571290,0.034208,-0.091172,-0.036346
4.567797,0.539581,0.820738,-9.562916,0.032070,-0.087048,-0.032529
4.575968,0.516850,0.842274,-9.543773,0.035736,-0.093921,-0.032987
4.584276,0.534796,0.819542,-9.582058,0.038943,-0.101251,-0.033598
4.593054,0.541974,0.820738,-9.562916,0.034056,-0.091324,-0.028558
4.601360,0.541974,0.820738,-9.540184,0.031918,-0.090408,-0.031001
4.609807,0.530010,0.801596,-9.540184,0.031918,-0.086896,-0.032376
4.618189,0.514457,0.783649,-9.516255,0.030543,-0.086896,-0.032376
4.626524,0.537189,0.796810,-9.513863,0.033750,-0.093921,-0.037263
4.634693,0.544367,0.783649,-9.531809,0.030849,-0.082925,-0.035125
4.643231,0.544367,0.807578,-9.543773,0.029627,-0.082009,-0.035430
4.651431,0.544367,0.807578,-9.573683,0.034972,-0.089186,-0.037263
4.660149,0.519243,0.826720,-9.573683,0.028558,-0.081703,-0.034056
4.668595,0.544367,0.836291,-9.540184,0.028558,-0.081703,-0.034056
4.676764,0.544367,0.820738,-9.533005,0.031001,-0.085979,-0.033598
4.685110,0.553938,0.787239,-9.543773,0.027947,-0.079718,-0.030238
4.693308,0.541974,0.787239,-9.614361,0.029932,-0.084758,-0.028863
4.701520,0.541974,0.776471,-9.556933,0.036194,-0.095142,-0.037415
4.709864,0.537189,0.776471,-9.556933,0.035277,-0.094837,-0.037263
4.718378,0.537189,0.796810,-9.583255,0.035277,-0.094837,-0.037263
4.726695,0.520439,0.809970,-9.537791,0.032529,-0.087354,-0.034819
4.734881,0.549153,0.823131,-9.565308,0.040470,-0.100945,-0.038637
4.743119,0.533599,0.832702,-9.522238,0.036346,-0.094073,-0.035277
4.751351,0.533599,0.832702,-9.577272,0.038637,-0.099113,-0.039554
4.759510,0.513260,0.815953,-9.577272,0.038637,-0.097280,-0.038637
4.768059,0.515653,0.800399,-9.522238,0.039248,-0.097280,-0.038637
4.776247,0.521635,0.809970,-9.555737,0.031460,-0.084605,-0.032987
4.784492,0.528814,0.794417,-9.530612,0.033750,-0.089492,-0.031765
4.792731,0.512064,0.784846,-9.543773,0.032223,-0.088423,-0.032529
4.800891,0.512064,0.784846,-9.543773,0.040623,-0.101556,-0.040470
4.809170,0.498904,0.788435,-9.540184,0.040623,-0.105680,-0.038179
4.818067,0.519243,0.794417,-9.529416,0.040470,-0.105680,-0.038179
4.826361,0.537189,0.820738,-9.565308,0.037110,-0.098349,-0.031765
4.834574,0.534796,0.805185,-9.546166,0.034972,-0.095295,-0.031460
4.842713,0.518046,0.831506,-9.531809,0.033139,-0.091324,-0.028100
4.851013,0.518046,0.831506,-9.505488,0.038026,-0.098502,-0.031918
4.859170,0.516850,0.809970,-9.505488,0.038026,-0.098502,-0.032070
4.867789,0.530010,0.800399,-9.477970,0.032834,-0.091630,-0.032070
4.876073,0.512064,0.806381,-9.528220,0.029016,-0.083078,-0.030696
4.887274,0.503689,0.801596,-9.509077,0.030391,-0.083841,-0.033598
4.895970,0.530010,0.814756,-9.577272,0.030696,-0.083689,-0.034056
4.904194,0.556331,0.817149,-9.573683,0.035736,-0.089034,-0.040164
4.912705,0.543171,0.793221,-9.540184,0.032223,-0.083536,-0.039095
4.921104,0.543171,0.807578,-9.584451,0.029169,-0.077733,-0.034208
4.929468,0.532403,0.807578,-9.584451,0.029169,-0.081856,-0.036041
4.937856,0.530010,0.806381,-9.512666,0.031307,-0.081856,-0.036041
4.946058,0.537189,0.800399,-9.570094,0.027947,-0.077580,-0.032376
4.954461,0.545564,0.790828,-9.544969,0.031154,-0.084758,-0.033445
4.963124,0.528814,0.802792,-9.535398,0.029780,-0.085216,-0.032529
4.972021,0.543171,0.796810,-9.603594,0.027947,-0.081245,-0.029474
4.980310,0.543171,0.796810,-9.603594,0.032834,-0.087659,-0.032681
4.988727,0.539581,0.784846,-9.544969,0.032834,-0.087659,-0.035583
4.997794,0.528814,0.799203,-9.576076,0.035125,-0.093310,-0.035583
5.005279,0.504886,0.826720,-9.555737,0.036041,-0.095295,-0.037110
5.013529,0.520439,0.835095,-9.568898,0.030543,-0.085063,-0.029780
5.021177,0.520439,0.819542,-9.555737,0.032529,-0.087965,-0.031918
5.029114,0.545564,0.819542,-9.555737,0.032529,-0.087965,-0.032681
5.036682,0.515653,0.814756,-9.507881,0.032987,-0.089339,-0.032681
5.044157,0.515653,0.798006,-9.544969,0.033292,-0.092852,-0.030696
5.051760,0.514457,0.789631,-9.522238,0.027336,-0.083078,-0.028558
5.059956,0.514457,0.789631,-9.522238,0.035125,-0.093615,-0.034667
5.069228,0.500100,0.794417,-9.505488,0.035125,-0.093310,-0.035125
5.076816,0.509671,0.821935,-9.548559,0.034514,-0.093310,-0.035125
5.084337,0.555135,0.836291,-9.548559,0.035888,-0.091935,-0.036652
5.091928,0.546760,0.833899,-9.561719,0.029780,-0.081703,-0.033750
5.099777,0.546760,0.833899,-9.561719,0.031154,-0.085216,-0.033445
5.108046,0.540778,0.803988,-9.566505,0.031154,-0.085216,-0.033445
5.116535,0.541974,0.826720,-9.567701,0.031001,-0.086285,-0.031612
5.124897,0.543171,0.809970,-9.528220,0.034514,-0.091935,-0.033445
5.133175,0.540778,0.807578,-9.504291,0.029627,-0.084452,-0.029322
5.141474,0.509671,0.789631,-9.518648,0.030696,-0.086285,-0.028558
5.149649,0.509671,0.789631,-9.518648,0.033750,-0.091019,-0.032070
5.158051,0.528814,0.814756,-9.576076,0.033750,-0.091019,-0.032070
5.166378,0.512064,0.812363,-9.546166,0.027794,-0.084910,-0.029932
5.174803,0.507278,0.819542,-9.525827,0.032070,-0.089644,-0.032529
5.185640,0.506082,0.793221,-9.541380,0.041386,-0.103084,-0.038026
5.194102,0.521635,0.824327,-9.554541,0.038790,-0.095295,-0.036194
5.202488,0.520439,0.827917,-9.519845,0.027031,-0.078191,-0.028253
5.210747,0.520439,0.803988,-9.530612,0.024893,-0.077427,-0.027947
5.220376,0.500100,0.803988,-9.540184,0.031612,-0.084758,-0.029322
5.228590,0.559920,0.808774,-9.540184,0.031612,-0.084758,-0.028405
5.236894,0.509671,0.796810,-9.529416,0.030696,-0.082925,-0.028405
5.245145,0.545564,0.781257,-9.487542,0.030696,-0.086743,-0.031612
5.253298,0.518046,0.798006,-9.518648,0.032681,-0.091324,-0.032834
5.261714,0.491725,0.802792,-9.554541,0.037263,-0.102014,-0.036805
5.270945,0.521635,0.792024,-9.543773,0.039554,-0.099876,-0.039095
5.279611,0.521635,0.792024,-9.543773,0.037721,-0.095600,-0.039554
5.287868,0.510868,0.786042,-9.503095,0.037721,-0.095600,-0.039554
5.296176,0.533599,0.818345,-9.518648,0.039095,-0.098349,-0.044288
5.304022,0.512064,0.807578,-9.585647,0.029169,-0.082161,-0.036346
5.311494,0.545564,0.794417,-9.550951,0.037874,-0.095142,-0.042150
5.319117,0.545564,0.794417,-9.550951,0.034972,-0.090408,-0.037874
5.326641,0.553938,0.815953,-9.540184,0.034972,-0.090408,-0.037874
5.334076,0.500100,0.808774,-9.546166,0.033598,-0.088881,-0.036805
5.342340,0.514457,0.798006,-9.567701,0.040012,-0.101098,-0.040775
5.349781,0.514457,0.798006,-9.567701,0.037568,-0.100182,-0.038485
5.357266,0.546760,0.792024,-9.521041,0.037568,-0.100182,-0.038485
5.364815,0.513260,0.809970,-9.558130,0.039095,-0.100335,-0.038179
5.373236,0.521635,0.817149,-9.517452,0.040775,-0.100640,-0.042150
5.381447,0.494118,0.836291,-9.540184,0.036499,-0.096822,-0.039706
5.389462,0.494118,0.836291,-9.540184,0.037263,-0.094531,-0.037874
5.396950,0.543171,0.826720,-9.562916,0.037263,-0.094531,-0.037874
5.404586,0.522832,0.830309,-9.512666,0.033445,-0.088423,-0.031612
5.412014,0.564706,0.789631,-9.555737,0.030543,-0.086285,-0.027947
5.420424,0.564706,0.774078,-9.578469,0.036194,-0.091783,-0.033139
5.428023,0.531207,0.774078,-9.578469,0.036194,-0.091783,-0.033139
5.435438,0.534796,0.775275,-9.535398,0.036499,-0.094226,-0.034667
5.443171,0.533599,0.766900,-9.543773,0.035277,-0.094531,-0.033598
5.450622,0.518046,0.809970,-9.535398,0.031918,-0.088270,-0.034972
5.458038,0.518046,0.809970,-9.535398,0.031918,-0.088270,-0.034972
5.465671,0.533599,0.808774,-9.538987,0.026878,-0.082772,-0.030849
5.474249,0.531207,0.831506,-9.506684,0.031307,-0.087048,-0.032529
5.481998,0.530010,0.866202,-9.518648,0.037263,-0.097738,-0.035430
5.489571,0.530010,0.866202,-9.518648,0.034056,-0.093004,-0.032376
5.497025,0.513260,0.854238,-9.529416,0.034056,-0.093004,-0.032376
5.504622,0.538385,0.818345,-9.524630,0.035125,-0.095448,-0.031154
5.512170,0.556331,0.805185,-9.561719,0.035888,-0.094531,-0.030085
5.521104,0.552742,0.790828,-9.547362,0.028863,-0.080176,-0.023518
5.528731,0.552742,0.790828,-9.547362,0.028863,-0.083383,-0.027031
5.536172,0.524028,0.750150,-9.517452,0.031001,-0.083383,-0.027031
5.543717,0.518046,0.765703,-9.559326,0.036652,-0.099724,-0.032987
5.551288,0.522832,0.768096,-9.548559,0.034208,-0.094837,-0.031001
5.558704,0.522832,0.768096,-9.548559,0.034208,-0.093768,-0.031918
5.566300,0.514457,0.798006,-9.546166,0.033445,-0.093768,-0.031918
5.573987,0.514457,0.835095,-9.567701,0.034361,-0.092546,-0.033903
5.581449,0.518046,0.841077,-9.522238,0.033292,-0.090561,-0.032376
5.589109,0.518046,0.841077,-9.522238,0.034819,-0.094379,-0.032376
5.596538,0.516850,0.817149,-9.485149,0.034819,-0.094379,-0.032376
5.604652,0.519243,0.823131,-9.543773,0.043219,-0.107970,-0.039401
5.612170,0.527617,0.835095,-9.561719,0.034514,-0.091477,-0.032681
5.620079,0.527617,0.812363,-9.571290,0.026573,-0.077122,-0.031307
5.627843,0.514457,0.812363,-9.571290,0.026573,-0.077122,-0.031307
5.635293,0.524028,0.775275,-9.538987,0.032987,-0.087659,-0.037721
5.642712,0.550349,0.776471,-9.516255,0.037568,-0.093921,-0.041692
5.650350,0.531207,0.799203,-9.528220,0.036041,-0.089492,-0.040775
6.698515,0.541974,0.808774,-9.566505,0.035583,-0.093615,-0.031460
6.708987,0.547956,0.823131,-9.547362,0.035736,-0.094990,-0.031001
6.719675,0.547956,0.823131,-9.531809,0.033598,-0.092852,-0.031460
6.728589,0.525225,0.815953,-9.515059,0.032987,-0.089950,-0.032681
6.737089,0.525225,0.815953,-9.515059,0.034667,-0.094073,-0.034514
6.745330,0.504886,0.808774,-9.497113,0.034667,-0.094073,-0.034514
6.753665,0.531207,0.823131,-9.573683,0.037263,-0.096822,-0.035736
6.762028,0.483350,0.819542,-9.505488,0.036194,-0.096822,-0.034361
6.770254,0.526421,0.830309,-9.457631,0.030543,-0.087201,-0.034667
6.778566,0.522832,0.802792,-9.473185,0.039554,-0.097128,-0.039706
6.787234,0.522832,0.802792,-9.473185,0.032987,-0.086132,-0.034972
6.795743,0.533599,0.817149,-9.533005,0.032987,-0.086132,-0.034208
6.803993,0.531207,0.809970,-9.556933,0.035125,-0.091172,-0.034208
6.812861,0.539581,0.795614,-9.556933,0.032681,-0.093310,-0.032681
6.821134,0.518046,0.794417,-9.549755,0.035736,-0.098655,-0.032223
6.829314,0.526421,0.796810,-9.552148,0.036194,-0.097128,-0.028711
6.837906,0.526421,0.814756,-9.519845,0.024435,-0.079412,-0.022449
6.846127,0.528814,0.814756,-9.519845,0.024435,-0.087048,-0.030085
6.854647,0.521635,0.817149,-9.550951,0.031001,-0.087048,-0.030085
6.862871,0.530010,0.817149,-9.529416,0.035277,-0.093921,-0.037721
6.871088,0.514457,0.832702,-9.513863,0.034361,-0.089034,-0.035277
6.879390,0.513260,0.849452,-9.498309,0.032070,-0.089034,-0.034514
6.888049,0.513260,0.839881,-9.534202,0.030849,-0.083994,-0.031612
6.896560,0.522832,0.839881,-9.534202,0.036194,-0.092241,-0.034667
6.904761,0.516850,0.830309,-9.495916,0.036194,-0.092241,-0.034667
6.913007,0.562313,0.838684,-9.565308,0.036041,-0.093462,-0.031765
6.921409,0.545564,0.790828,-9.542577,0.031001,-0.084299,-0.028863
6.929661,0.518046,0.759721,-9.583255,0.041539,-0.102625,-0.039095
6.938476,0.538385,0.759721,-9.531809,0.035125,-0.091477,-0.037110
6.946822,0.538385,0.759721,-9.531809,0.028558,-0.082620,-0.034361
6.955167,0.504886,0.805185,-9.534202,0.028558,-0.082620,-0.034361
6.963419,0.537189,0.782453,-9.497113,0.034972,-0.095753,-0.036346
6.971616,0.549153,0.833899,-9.586844,0.032529,-0.092088,-0.035125
6.980089,0.508475,0.854238,-9.540184,0.033139,-0.090103,-0.035125
6.989497,0.516850,0.853041,-9.567701,0.027489,-0.081245,-0.029016
6.997919,0.535992,0.833899,-9.558130,0.036499,-0.096822,-0.034208
7.006437,0.535992,0.833899,-9.558130,0.035736,-0.092546,-0.033445
7.014712,0.520439,0.808774,-9.561719,0.035736,-0.092546,-0.033445
7.023009,0.519243,0.800399,-9.552148,0.033139,-0.090255,-0.033292
7.032045,0.508475,0.830309,-9.572487,0.035888,-0.094531,-0.034667
7.041461,0.531207,0.801596,-9.687342,0.033139,-0.090103,-0.033598
7.050746,0.522832,0.759721,-9.460024,0.031918,-0.088423,-0.033598
7.062233,0.488136,0.818345,-9.579665,0.037415,-0.100487,-0.036652
7.071410,0.516850,0.876969,-9.701699,0.036194,-0.099876,-0.035888
7.080666,0.520439,0.904487,-9.559326,0.032987,-0.091477,-0.032987
7.090208,0.545564,0.838684,-9.646664,0.032834,-0.089950,-0.035430
7.099487,0.537189,0.778864,-9.426525,0.029780,-0.084758,-0.033292
7.108759,0.534796,0.841077,-9.711271,0.032681,-0.087965,-0.034972
7.117945,0.527617,0.796810,-9.528220,0.032223,-0.086437,-0.033445
7.127078,0.527617,0.796810,-9.542577,0.030543,-0.083536,-0.034667
7.135338,0.543171,0.758525,-9.542577,0.030543,-0.083078,-0.034208
7.143928,0.556331,0.802792,-9.556933,0.029474,-0.083078,-0.034208
7.152224,0.538385,0.793221,-9.530612,0.037110,-0.093615,-0.034819
7.160598,0.540778,0.800399,-9.521041,0.032681,-0.089797,-0.032529
7.168850,0.519243,0.799203,-9.522238,0.035430,-0.095753,-0.033903
7.177063,0.519243,0.799203,-9.509077,0.035736,-0.097128,-0.033750
7.185368,0.519243,0.798006,-9.509077,0.035736,-0.104305,-0.036957
7.193845,0.485743,0.803988,-9.518648,0.039706,-0.104305,-0.036957
7.202151,0.525225,0.831506,-9.537791,0.034972,-0.098349,-0.034667
7.210329,0.549153,0.832702,-9.568898,0.031612,-0.083994,-0.032376
7.218527,0.515653,0.814756,-9.540184,0.035430,-0.090866,-0.036652
7.227428,0.515653,0.794417,-9.572487,0.034819,-0.091172,-0.036194
7.235626,0.556331,0.794417,-9.572487,0.033445,-0.090713,-0.035888
7.244053,0.504886,0.803988,-9.531809,0.033445,-0.090713,-0.035888
7.252228,0.512064,0.796810,-9.530612,0.035583,-0.092699,-0.035888
7.260493,0.521635,0.806381,-9.555737,0.039248,-0.099876,-0.040775
7.268710,0.503689,0.796810,-9.536594,0.035736,-0.095448,-0.037721
7.276897,0.503689,0.796810,-9.542577,0.032376,-0.088423,-0.036194
7.285200,0.514457,0.814756,-9.542577,0.032376,-0.076205,-0.029932
7.293652,0.527617,0.814756,-9.554541,0.024893,-0.076205,-0.029932
7.301978,0.531207,0.815953,-9.529416,0.035430,-0.093004,-0.035125
7.310200,0.504886,0.805185,-9.533005,0.040317,-0.101404,-0.034972
7.318357,0.519243,0.817149,-9.561719,0.041386,-0.105069,-0.038179
7.326670,0.519243,0.817149,-9.547362,0.040775,-0.103236,-0.037568
7.334834,0.526421,0.818345,-9.547362,0.040775,-0.103236,-0.033903
7.343265,0.508475,0.808774,-9.537791,0.033598,-0.091019,-0.033903
7.351501,0.510868,0.815953,-9.534202,0.035125,-0.093462,-0.036652
7.359653,0.528814,0.798006,-9.513863,0.038179,-0.096211,-0.035583
7.367980,0.549153,0.800399,-9.511470,0.037415,-0.098655,-0.036652
7.376154,0.549153,0.800399,-9.511470,0.034972,-0.093157,-0.034361
7.384395,0.551546,0.818345,-9.556933,0.034972,-0.093157,-0.034361
7.392832,0.521635,0.811167,-9.547362,0.033750,-0.093768,-0.033598
7.401118,0.492921,0.812363,-9.561719,0.038332,-0.098502,-0.032529
7.409378,0.561117,0.824327,-9.550951,0.037263,-0.097891,-0.029169
7.417567,0.563510,0.808774,-9.507881,0.032987,-0.090713,-0.028253
7.425941,0.563510,0.808774,-9.507881,0.034361,-0.095448,-0.030849
7.434184,0.533599,0.821935,-9.528220,0.034361,-0.095448,-0.030849
7.442717,0.534796,0.815953,-9.541380,0.035430,-0.096669,-0.033598
7.450992,0.510868,0.809970,-9.548559,0.035125,-0.096059,-0.036041
7.459213,0.509671,0.813560,-9.556933,0.027947,-0.082314,-0.032529
7.467489,0.504886,0.808774,-9.603594,0.031001,-0.084299,-0.035736
7.475744,0.504886,0.808774,-9.603594,0.034972,-0.088117,-0.037874
7.483999,0.541974,0.784846,-9.518648,0.034972,-0.088117,-0.037874
7.492555,0.538385,0.796810,-9.507881,0.034972,-0.085063,-0.036652
7.500851,0.514457,0.817149,-9.521041,0.036346,-0.087812,-0.038637
7.509156,0.528814,0.799203,-9.519845,0.039554,-0.094990,-0.040775
7.517366,0.516850,0.792024,-9.531809,0.034514,-0.092546,-0.035888
7.525620,0.516850,0.792024,-9.531809,0.034972,-0.093462,-0.032376
7.533869,0.527617,0.801596,-9.511470,0.034972,-0.093462,-0.032376
7.542224,0.492921,0.805185,-9.527023,0.037110,-0.098044,-0.031154
7.550552,0.515653,0.821935,-9.541380,0.031612,-0.093004,-0.029016
7.558743,0.531207,0.805185,-9.534202,0.033139,-0.092546,-0.030085
7.566976,0.527617,0.809970,-9.556933,0.037568,-0.097128,-0.033903
7.575185,0.527617,0.809970,-9.556933,0.034819,-0.092546,-0.034514
7.584756,0.535992,0.800399,-9.531809,0.039095,-0.099266,-0.037568
7.593705,0.519243,0.815953,-9.516255,0.039095,-0.099266,-0.037568
7.602108,0.525225,0.835095,-9.510273,0.037263,-0.098655,-0.035125
7.610502,0.553938,0.807578,-9.507881,0.031307,-0.089797,-0.033598
7.618720,0.550349,0.831506,-9.547362,0.034514,-0.092546,-0.035125
7.627666,0.518046,0.823131,-9.564112,0.034208,-0.093157,-0.035125
7.635969,0.518046,0.823131,-9.564112,0.032681,-0.087048,-0.034361
7.644992,0.553938,0.798006,-9.631111,0.031765,-0.083383,-0.032529
7.653348,0.535992,0.850648,-9.561719,0.031765,-0.083383,-0.032529
7.661602,0.528814,0.800399,-9.504291,0.034819,-0.092241,-0.035583
7.669911,0.508475,0.798006,-9.550951,0.035277,-0.091019,-0.037110
7.678216,0.508475,0.842274,-9.579665,0.035277,-0.095753,-0.037415
7.686447,0.508475,0.806381,-9.530612,0.034514,-0.091324,-0.036041
7.695433,0.508475,0.806381,-9.530612,0.033292,-0.086590,-0.032376
7.703776,0.528814,0.817149,-9.543773,0.033292,-0.086590,-0.032376
7.712079,0.524028,0.815953,-9.558130,0.032987,-0.087354,-0.032987
7.720285,0.522832,0.811167,-9.584451,0.029932,-0.082467,-0.030543
7.728562,0.541974,0.807578,-9.553344,0.035736,-0.091630,-0.034361
7.736829,0.539581,0.786042,-9.547362,0.032376,-0.089492,-0.030543
7.745823,0.539581,0.786042,-9.547362,0.034972,-0.095448,-0.035125
7.754174,0.512064,0.798006,-9.530612,0.034972,-0.095448,-0.033445
7.762651,0.512064,0.813560,-9.507881,0.034667,-0.093768,-0.033445
7.770904,0.522832,0.789631,-9.603594,0.037721,-0.100945,-0.035277
7.779154,0.501296,0.795614,-9.540184,0.032681,-0.093462,-0.032070
7.787322,0.525225,0.841077,-9.513863,0.032376,-0.094379,-0.032376
7.795871,0.525225,0.841077,-9.497113,0.038026,-0.099724,-0.034056
7.804183,0.510868,0.801596,-9.497113,0.038026,-0.099724,-0.035736
7.812493,0.531207,0.801596,-9.530612,0.037874,-0.099571,-0.035736
7.820760,0.525225,0.825524,-9.534202,0.030543,-0.086285,-0.032529
7.828958,0.546760,0.824327,-9.586844,0.031918,-0.088728,-0.033598
7.837253,0.522832,0.803988,-9.536594,0.027489,-0.082314,-0.032070
7.845677,0.522832,0.803988,-9.536594,0.028863,-0.083383,-0.032223
7.854203,0.526421,0.807578,-9.564112,0.028863,-0.083383,-0.030391
7.862400,0.534796,0.819542,-9.558130,0.026420,-0.077122,-0.030391
7.870688,0.537189,0.835095,-9.534202,0.032681,-0.087965,-0.035277
7.880263,0.528814,0.819542,-9.510273,0.035583,-0.094990,-0.036346
7.889335,0.531207,0.827917,-9.537791,0.036346,-0.095142,-0.036041
7.897966,0.502493,0.819542,-9.528220,0.028253,-0.084910,-0.030849
7.906302,0.502493,0.817149,-9.550951,0.021075,-0.070097,-0.025504
7.914745,0.531207,0.817149,-9.550951,0.025504,-0.076816,-0.028405
7.923047,0.524028,0.811167,-9.567701,0.025504,-0.076816,-0.028405
7.931378,0.513260,0.812363,-9.544969,0.033445,-0.087965,-0.036346
7.939702,0.563510,0.812363,-9.571290,0.023976,-0.073151,-0.030391
7.948240,0.519243,0.787239,-9.546166,0.031001,-0.083230,-0.034514
7.956621,0.533599,0.806381,-9.582058,0.028863,-0.081092,-0.031765
7.964817,0.533599,0.806381,-9.582058,0.026573,-0.079260,-0.028405
7.973038,0.534796,0.787239,-9.513863,0.026573,-0.079260,-0.028405
7.981290,0.545564,0.801596,-9.517452,0.034667,-0.092852,-0.033139
7.989500,0.532403,0.806381,-9.536594,0.033445,-0.087659,-0.031460
7.998382,0.547956,0.830309,-9.568898,0.030391,-0.085674,-0.029780
8.006925,0.514457,0.811167,-9.516255,0.032834,-0.093157,-0.031307
8.015316,0.514457,0.811167,-9.516255,0.031001,-0.089186,-0.030543
8.023598,0.534796,0.812363,-9.534202,0.031001,-0.089186,-0.032223
8.032585,0.526421,0.836291,-9.538987,0.035430,-0.092699,-0.032223
8.041017,0.522832,0.829113,-9.540184,0.035430,-0.093462,-0.032529
8.049438,0.532403,0.832702,-9.565308,0.027336,-0.081398,-0.028863
8.059328,0.532403,0.818345,-9.550951,0.029474,-0.086132,-0.031765
8.068199,0.527617,0.824327,-9.531809,0.034514,-0.094379,-0.034972
8.076819,0.520439,0.793221,-9.515059,0.034972,-0.093310,-0.035888
8.085130,0.520439,0.793221,-9.515059,0.034667,-0.091630,-0.035888
8.093406,0.522832,0.801596,-9.481560,0.034667,-0.091630,-0.035888
8.101952,0.531207,0.789631,-9.527023,0.038790,-0.097891,-0.038485
8.110183,0.549153,0.794417,-9.566505,0.030696,-0.085979,-0.032834
8.118786,0.524028,0.817149,-9.566505,0.028405,-0.082314,-0.030391
8.127245,0.543171,0.807578,-9.516255,0.029016,-0.084452,-0.029474
8.135959,0.543171,0.809970,-9.542577,0.031154,-0.088728,-0.030543
8.143668,0.537189,0.809970,-9.542577,0.031154,-0.088728,-0.032529
8.151708,0.545564,0.809970,-9.566505,0.032529,-0.092241,-0.032529
8.159436,0.518046,0.838684,-9.558130,0.024282,-0.077885,-0.029627
8.167023,0.515653,0.818345,-9.556933,0.030696,-0.087812,-0.036652
8.174558,0.515653,0.818345,-9.556933,0.031612,-0.089339,-0.038485
8.182311,0.541974,0.821935,-9.536594,0.031612,-0.089339,-0.038485
8.189782,0.535992,0.836291,-9.541380,0.027947,-0.080176,-0.032681
8.197420,0.546760,0.817149,-9.525827,0.031765,-0.086285,-0.036499
8.205207,0.546760,0.817149,-9.525827,0.037721,-0.093157,-0.035277
8.212672,0.568295,0.775275,-9.546166,0.037721,-0.093157,-0.035277
8.220196,0.502493,0.784846,-9.552148,0.034514,-0.084299,-0.029780
8.227736,0.537189,0.786042,-9.548559,0.031612,-0.086590,-0.027336
8.235525,0.537189,0.783649,-9.555737,0.039248,-0.100182,-0.032376
8.243941,0.535992,0.783649,-9.555737,0.038179,-0.100945,-0.032529
8.252615,0.503689,0.826720,-9.560523,0.038179,-0.100945,-0.032529
8.260941,0.506082,0.841077,-9.540184,0.040470,-0.106596,-0.035125
8.269196,0.538385,0.854238,-9.528220,0.043066,-0.106901,-0.036194
8.277358,0.531207,0.851845,-9.531809,0.036346,-0.094531,-0.031918
8.285763,0.512064,0.839881,-9.529416,0.034819,-0.093615,-0.032376
8.293957,0.512064,0.839881,-9.529416,0.034208,-0.088881,-0.033445
8.302631,0.514457,0.819542,-9.542577,0.034208,-0.088881,-0.033445
8.310908,0.514457,0.795614,-9.570094,0.034972,-0.089492,-0.035125
8.319214,0.507278,0.790828,-9.564112,0.032070,-0.082314,-0.033903
8.327610,0.506082,0.768096,-9.492327,0.037568,-0.093310,-0.038485
8.335864,0.551546,0.793221,-9.562916,0.034819,-0.091477,-0.035430
8.344309,0.551546,0.793221,-9.562916,0.031612,-0.088423,-0.033903
8.353039,0.550349,0.813560,-9.588040,0.031612,-0.088423,-0.035430
8.361351,0.508475,0.821935,-9.553344,0.033903,-0.093462,-0.035430
8.369621,0.501296,0.831506,-9.530612,0.036194,-0.094990,-0.035277
8.377867,0.494118,0.807578,-9.542577,0.035277,-0.094379,-0.031612
8.386203,0.534796,0.798006,-9.509077,0.035736,-0.096211,-0.031460
8.394414,0.534796,0.798006,-9.509077,0.036041,-0.096975,-0.034208
8.402834,0.549153,0.820738,-9.558130,0.036041,-0.096975,-0.034208
8.411113,0.512064,0.809970,-9.564112,0.035430,-0.092393,-0.035125
8.419281,0.519243,0.790828,-9.555737,0.038179,-0.095142,-0.038943
8.428366,0.516850,0.783649,-9.515059,0.034208,-0.090866,-0.036041
8.436633,0.531207,0.789631,-9.527023,0.034514,-0.093310,-0.037721
8.444892,0.531207,0.789631,-9.511470,0.037874,-0.098502,-0.039706
8.453269,0.513260,0.796810,-9.511470,0.037874,-0.104763,-0.041997
8.461528,0.522832,0.825524,-9.492327,0.042302,-0.104763,-0.041997
8.469941,0.515653,0.787239,-9.524630,0.034361,-0.091783,-0.033903
8.478170,0.492921,0.807578,-9.530612,0.037415,-0.099571,-0.038485
8.488090,0.525225,0.821935,-9.510273,0.035888,-0.096211,-0.035430
8.496522,0.495314,0.800399,-9.511470,0.040928,-0.100793,-0.037721
8.505189,0.495314,0.802792,-9.499506,0.035125,-0.090866,-0.036041
8.513562,0.522832,0.802792,-9.499506,0.033139,-0.088117,-0.036194
8.521816,0.546760,0.787239,-9.568898,0.033139,-0.088117,-0.036194
8.530258,0.526421,0.786042,-9.515059,0.027031,-0.077274,-0.032070
8.538506,0.540778,0.805185,-9.505488,0.032223,-0.083383,-0.033139
8.546847,0.541974,0.819542,-9.501899,0.035888,-0.091935,-0.036194
8.555562,0.525225,0.808774,-9.528220,0.038637,-0.096822,-0.036041
8.564162,0.525225,0.808774,-9.528220,0.039859,-0.101251,-0.036346
8.572558,0.520439,0.799203,-9.513863,0.039859,-0.101251,-0.036346
8.580748,0.501296,0.809970,-9.600004,0.040470,-0.105069,-0.036805
8.589106,0.510868,0.812363,-9.559326,0.033750,-0.092393,-0.031765
8.597318,0.507278,0.803988,-9.524630,0.029932,-0.086743,-0.029780
8.606024,0.539581,0.819542,-9.527023,0.030085,-0.086132,-0.032529
8.614512,0.539581,0.819542,-9.541380,0.030391,-0.089034,-0.034972
8.622805,0.516850,0.831506,-9.541380,0.030391,-0.089034,-0.039401
8.631205,0.466600,0.837488,-9.515059,0.031765,-0.096211,-0.039401
8.639457,0.518046,0.823131,-9.548559,0.032834,-0.095295,-0.036805
8.647818,0.549153,0.829113,-9.560523,0.033903,-0.096059,-0.034667
8.656619,0.525225,0.830309,-9.550951,0.031001,-0.089186,-0.032223
8.664927,0.525225,0.782453,-9.510273,0.033598,-0.094684,-0.034667
8.673357,0.533599,0.782453,-9.510273,0.038485,-0.100793,-0.038943
8.681644,0.503689,0.783649,-9.529416,0.038485,-0.100793,-0.038943
8.690061,0.530010,0.808774,-9.556933,0.032834,-0.092393,-0.038485
8.698311,0.546760,0.802792,-9.553344,0.031307,-0.086132,-0.037110
8.707045,0.520439,0.790828,-9.547362,0.035583,-0.091783,-0.039248
8.715459,0.515653,0.808774,-9.538987,0.036194,-0.094837,-0.041233
8.723682,0.515653,0.808774,-9.538987,0.030849,-0.084299,-0.036805
8.732219,0.521635,0.809970,-9.555737,0.030849,-0.084299,-0.036805
8.740530,0.515653,0.801596,-9.544969,0.036041,-0.089339,-0.038485
8.748855,0.502493,0.784846,-9.542577,0.039401,-0.097433,-0.038943
8.757529,0.543171,0.806381,-9.576076,0.036346,-0.093157,-0.035583
8.765816,0.532403,0.788435,-9.562916,0.034361,-0.087965,-0.032987
8.774216,0.532403,0.788435,-9.562916,0.034514,-0.089644,-0.032223
8.783854,0.541974,0.801596,-9.530612,0.032223,-0.082772,-0.028100
8.792514,0.538385,0.801596,-9.528220,0.032223,-0.082772,-0.033292
8.800823,0.537189,0.815953,-9.536594,0.039554,-0.095753,-0.033292
8.809721,0.540778,0.817149,-9.536594,0.033139,-0.089644,-0.029780
8.818180,0.538385,0.808774,-9.577272,0.034819,-0.090255,-0.030085
8.826430,0.562313,0.800399,-9.535398,0.038943,-0.096517,-0.033292
8.835869,0.589831,0.817149,-9.585647,0.036346,-0.095295,-0.033292
8.844153,0.589831,0.817149,-9.506684,0.028253,-0.086132,-0.030085
8.852461,0.539581,0.857827,-9.506684,0.028253,-0.089034,-0.032834
8.861029,0.513260,0.824327,-9.553344,0.031612,-0.089034,-0.032834
8.869369,0.488136,0.808774,-9.544969,0.035125,-0.093768,-0.036346
8.878038,0.500100,0.795614,-9.527023,0.031765,-0.089339,-0.029474
8.886291,0.571885,0.796810,-9.533005,0.029627,-0.083994,-0.025504
8.894721,0.563510,0.794417,-9.530612,0.029780,-0.084910,-0.025809
8.903066,0.563510,0.794417,-9.530612,0.032529,-0.091172,-0.029474
8.912550,0.540778,0.815953,-9.567701,0.032529,-0.093310,-0.029780
8.920875,0.526421,0.778864,-9.534202,0.033139,-0.093310,-0.029780
8.929098,0.498904,0.798006,-9.552148,0.031612,-0.091172,-0.030391
8.937634,0.522832,0.813560,-9.535398,0.032834,-0.090103,-0.029474
8.945378,0.521635,0.823131,-9.521041,0.026878,-0.078954,-0.025809
8.953320,0.521635,0.823131,-9.521041,0.031307,-0.083689,-0.030085
8.961185,0.528814,0.839881,-9.512666,0.031307,-0.083689,-0.030085
8.968759,0.531207,0.827917,-9.547362,0.027947,-0.079260,-0.027794
8.976319,0.496511,0.807578,-9.525827,0.032834,-0.087812,-0.032376
8.983865,0.496511,0.807578,-9.525827,0.030696,-0.084299,-0.029932
8.991365,0.507278,0.811167,-9.564112,0.030696,-0.084299,-0.029932
8.998978,0.513260,0.798006,-9.536594,0.033292,-0.089950,-0.029474
9.006882,0.557528,0.811167,-9.566505,0.037568,-0.100335,-0.033139
9.014621,0.558724,0.814756,-9.542577,0.032681,-0.089492,-0.030849
9.022312,0.558724,0.814756,-9.542577,0.032681,-0.089492,-0.031918
9.029796,0.509671,0.813560,-9.542577,0.029780,-0.087506,-0.031918
9.037340,0.512064,0.799203,-9.534202,0.030543,-0.089339,-0.033598
9.045345,0.545564,0.799203,-9.565308,0.034819,-0.096822,-0.034972
9.053552,0.545564,0.799203,-9.565308,0.035125,-0.093462,-0.033445
9.063229,0.557528,0.812363,-9.564112,0.035125,-0.093615,-0.033139
9.071690,0.530010,0.811167,-9.507881,0.035125,-0.093615,-0.033139
9.080147,0.530010,0.776471,-9.547362,0.033598,-0.094837,-0.032681
9.088492,0.519243,0.789631,-9.568898,0.027489,-0.085216,-0.026114
9.096770,0.501296,0.790828,-9.541380,0.032529,-0.093615,-0.027184
9.105216,0.482154,0.829113,-9.537791,0.036499,-0.099571,-0.032223
9.113725,0.482154,0.829113,-9.561719,0.032376,-0.095448,-0.032987
9.122136,0.480957,0.815953,-9.561719,0.032376,-0.086590,-0.034208
9.130380,0.535992,0.818345,-9.588040,0.032987,-0.086590,-0.034208
9.138780,0.525225,0.827917,-9.556933,0.027794,-0.079412,-0.030543
9.146923,0.535992,0.824327,-9.516255,0.031918,-0.085979,-0.033903
9.154389,0.527617,0.787239,-9.515059,0.032070,-0.087048,-0.033292
9.162126,0.527617,0.787239,-9.515059,0.032070,-0.087048,-0.031918
9.169619,0.533599,0.805185,-9.572487,0.030849,-0.090255,-0.031918
9.177080,0.502493,0.794417,-9.561719,0.033139,-0.083383,-0.032834
9.184791,0.545564,0.796810,-9.590433,0.031765,-0.089644,-0.033598
9.192235,0.545564,0.796810,-9.590433,0.031765,-0.103084,-0.036805
9.200069,0.559920,0.780060,-9.540184,0.040470,-0.103084,-0.036805
9.207751,0.477368,0.803988,-9.562916,0.038485,-0.101862,-0.035430
9.215397,0.552742,0.820738,-9.540184,0.031918,-0.090408,-0.028253
9.223557,0.552742,0.820738,-9.540184,0.033903,-0.092699,-0.031765
9.231129,0.509671,0.826720,-9.543773,0.033903,-0.092699,-0.031765
9.238688,0.495314,0.795614,-9.561719,0.037415,-0.096517,-0.037874
9.246638,0.512064,0.825524,-9.547362,0.040470,-0.098807,-0.039859
9.254976,0.550349,0.826720,-9.590433,0.031460,-0.081398,-0.034361
9.263549,0.550349,0.826720,-9.524630,0.030238,-0.078496,-0.034056
9.271766,0.530010,0.801596,-9.524630,0.030238,-0.078496,-0.035277
9.280094,0.524028,0.803988,-9.530612,0.031612,-0.083841,-0.035277
9.288447,0.527617,0.811167,-9.570094,0.038485,-0.097433,-0.036194
9.296747,0.539581,0.802792,-9.519845,0.035125,-0.093310,-0.032834
9.305107,0.508475,0.825524,-9.531809,0.035583,-0.093768,-0.034514
9.313716,0.508475,0.821935,-9.540184,0.032681,-0.092241,-0.033903
9.322201,0.541974,0.821935,-9.540184,0.031918,-0.090255,-0.032987
9.330635,0.509671,0.807578,-9.548559,0.031918,-0.090255,-0.032987
9.339037,0.513260,0.829113,-9.566505,0.034514,-0.091630,-0.036805
9.347410,0.528814,0.809970,-9.528220,0.034514,-0.089492,-0.039095
9.355758,0.528814,0.809970,-9.534202,0.032070,-0.084758,-0.038790
9.364457,0.545564,0.817149,-9.559326,0.029932,-0.079412,-0.034972
9.372718,0.545564,0.817149,-9.559326,0.035888,-0.090103,-0.038637
9.381198,0.540778,0.793221,-9.540184,0.035888,-0.094379,-0.034514
9.390357,0.522832,0.786042,-9.489934,0.036957,-0.094379,-0.034514
9.398734,0.525225,0.763310,-9.572487,0.036652,-0.097128,-0.030085
9.407115,0.514457,0.778864,-9.547362,0.031918,-0.089950,-0.027031
9.415572,0.531207,0.802792,-9.479167,0.034972,-0.097128,-0.030849
9.423942,0.518046,0.825524,-9.536594,0.033903,-0.094837,-0.032834
9.432194,0.518046,0.825524,-9.536594,0.037568,-0.099113,-0.038026
9.440424,0.515653,0.818345,-9.574880,0.037568,-0.099113,-0.038026
9.448725,0.549153,0.842274,-9.562916,0.033750,-0.089950,-0.036346
9.456917,0.540778,0.844666,-9.565308,0.029016,-0.080481,-0.034056
9.465476,0.538385,0.809970,-9.544969,0.028558,-0.078954,-0.033292
9.473725,0.544367,0.798006,-9.542577,0.031154,-0.080940,-0.031460
9.482004,0.544367,0.798006,-9.542577,0.036346,-0.091172,-0.036346
9.490311,0.555135,0.786042,-9.523434,0.036346,-0.091172,-0.036346
9.498678,0.526421,0.775275,-9.540184,0.032070,-0.086285,-0.032223
9.506948,0.514457,0.808774,-9.555737,0.032223,-0.088117,-0.030543
9.515407,0.497707,0.796810,-9.506684,0.034056,-0.095295,-0.033139
9.523674,0.540778,0.815953,-9.541380,0.032376,-0.092088,-0.032223
9.532006,0.540778,0.815953,-9.541380,0.034208,-0.092699,-0.033445
9.540196,0.519243,0.809970,-9.538987,0.034208,-0.092699,-0.033445
9.548557,0.547956,0.831506,-9.546166,0.031612,-0.089034,-0.034361
9.556799,0.531207,0.826720,-9.555737,0.025504,-0.077427,-0.028558
9.565217,0.484547,0.809970,-9.554541,0.032834,-0.088728,-0.033598
9.573482,0.484547,0.798006,-9.552148,0.038790,-0.101098,-0.036194
9.581696,0.520439,0.798006,-9.552148,0.037110,-0.094684,-0.034972
9.590034,0.532403,0.799203,-9.555737,0.037110,-0.094684,-0.034972
9.598238,0.544367,0.781257,-9.533005,0.035888,-0.093462,-0.035430
9.606455,0.530010,0.793221,-9.544969,0.033292,-0.091935,-0.034361
9.614964,0.509671,0.802792,-9.485149,0.035277,-0.095906,-0.034972
9.623829,0.520439,0.819542,-9.525827,0.039095,-0.100640,-0.037568
9.632171,0.520439,0.819542,-9.525827,0.038943,-0.098655,-0.037415
9.640403,0.502493,0.811167,-9.507881,0.038943,-0.098655,-0.037415
9.648704,0.535992,0.849452,-9.533005,0.030085,-0.086590,-0.031460
9.656935,0.530010,0.824327,-9.553344,0.029016,-0.083689,-0.031154
9.665396,0.530010,0.789631,-9.531809,0.033903,-0.091935,-0.034819
9.673703,0.539581,0.806381,-9.566505,0.035736,-0.094226,-0.034056
9.682147,0.539581,0.806381,-9.566505,0.035583,-0.091172,-0.033598
9.690869,0.525225,0.799203,-9.530612,0.035583,-0.091172,-0.034972
9.699148,0.535992,0.777667,-9.499506,0.036041,-0.094837,-0.034972
9.707390,0.531207,0.829113,-9.513863,0.036041,-0.096822,-0.035430
9.715941,0.531207,0.819542,-9.570094,0.027031,-0.079718,-0.031460
9.724159,0.532403,0.814756,-9.517452,0.038179,-0.098502,-0.039401
9.732542,0.532403,0.814756,-9.517452,0.034056,-0.089339,-0.034056
9.740823,0.520439,0.830309,-9.506684,0.034056,-0.089339,-0.032376
9.749199,0.520439,0.815953,-9.507881,0.030849,-0.085216,-0.032376
9.757490,0.531207,0.820738,-9.555737,0.036346,-0.094837,-0.036957
9.766053,0.535992,0.819542,-9.578469,0.030391,-0.083078,-0.032376
9.774467,0.540778,0.793221,-9.538987,0.032834,-0.088117,-0.032681
9.782707,0.540778,0.793221,-9.576076,0.036805,-0.097891,-0.037263
9.791012,0.528814,0.811167,-9.576076,0.036805,-0.085979,-0.032834
9.799281,0.530010,0.814756,-9.550951,0.030543,-0.085979,-0.032834
9.807513,0.547956,0.812363,-9.510273,0.033139,-0.091477,-0.034819
9.816150,0.544367,0.815953,-9.507881,0.032070,-0.089797,-0.033750
9.824442,0.545564,0.829113,-9.523434,0.032681,-0.092546,-0.032834
9.832709,0.545564,0.829113,-9.538987,0.033292,-0.090561,-0.033750
9.841201,0.531207,0.836291,-9.538987,0.033292,-0.093768,-0.036041
9.849591,0.524028,0.814756,-9.553344,0.035430,-0.093768,-0.036041
9.858227,0.547956,0.809970,-9.564112,0.037568,-0.096669,-0.034667
9.867041,0.530010,0.814756,-9.535398,0.031612,-0.085216,-0.031460
9.875463,0.561117,0.814756,-9.553344,0.034208,-0.094837,-0.030391
9.883769,0.545564,0.803988,-9.529416,0.032834,-0.090255,-0.028711
9.892019,0.545564,0.803988,-9.529416,0.032223,-0.088270,-0.031154
9.900306,0.543171,0.802792,-9.554541,0.032223,-0.088270,-0.031154
9.908532,0.532403,0.819542,-9.572487,0.038179,-0.098807,-0.034972
9.917187,0.538385,0.811167,-9.541380,0.036041,-0.093462,-0.033292
9.925449,0.526421,0.838684,-9.550951,0.036346,-0.094684,-0.033750
9.933763,0.531207,0.814756,-9.553344,0.036957,-0.095448,-0.034514
9.942043,0.531207,0.814756,-9.553344,0.038026,-0.099876,-0.035125
9.950310,0.530010,0.802792,-9.517452,0.038026,-0.099876,-0.034056
9.958641,0.549153,0.808774,-9.537791,0.035888,-0.095295,-0.034056
9.967270,0.534796,0.808774,-9.536594,0.033445,-0.089339,-0.031612
9.975659,0.545564,0.819542,-9.552148,0.025504,-0.078038,-0.026114
9.983996,0.524028,0.817149,-9.537791,0.028558,-0.085063,-0.027031
9.992249,0.524028,0.817149,-9.491131,0.033445,-0.093310,-0.033292
10.014007,0.550349,0.806381,-9.550951,0.033598,-0.085674,-0.037874
10.024151,0.528814,0.830309,-9.596415,0.032376,-0.084605,-0.036499
10.033837,0.550349,0.796810,-9.512666,0.032223,-0.084299,-0.034667
10.043184,0.521635,0.790828,-9.552148,0.034208,-0.088728,-0.035888
10.052764,0.504886,0.802792,-9.621540,0.031612,-0.086285,-0.033139
10.065223,0.546760,0.802792,-9.549755,0.032834,-0.088881,-0.033139
10.074753,0.535992,0.808774,-9.580862,0.034361,-0.091783,-0.036194
10.084697,0.508475,0.788435,-9.524630,0.033750,-0.091019,-0.037110
10.094737,0.547956,0.817149,-9.558130,0.036041,-0.093921,-0.036652
10.104688,0.571885,0.813560,-9.525827,0.031460,-0.082620,-0.032529
10.113928,0.553938,0.812363,-9.572487,0.031307,-0.087965,-0.033445
10.122424,0.553938,0.835095,-9.553344,0.032987,-0.089644,-0.034667
10.130759,0.512064,0.835095,-9.553344,0.032987,-0.098960,-0.038637
10.139095,0.524028,0.786042,-9.529416,0.040164,-0.098960,-0.038637
10.147378,0.530010,0.815953,-9.570094,0.041386,-0.103236,-0.040012
10.155689,0.534796,0.808774,-9.558130,0.033292,-0.090408,-0.035430
10.164093,0.553938,0.820738,-9.528220,0.028100,-0.082009,-0.032834
10.172587,0.549153,0.812363,-9.562916,0.030238,-0.086285,-0.034514
10.181038,0.549153,0.812363,-9.562916,0.031765,-0.089797,-0.035277
10.189296,0.527617,0.807578,-9.527023,0.031765,-0.089797,-0.035277
10.197623,0.516850,0.795614,-9.518648,0.041386,-0.103236,-0.040775
10.205885,0.545564,0.819542,-9.553344,0.034361,-0.093310,-0.035125
10.214175,0.535992,0.801596,-9.540184,0.034972,-0.092241,-0.033903
10.223026,0.537189,0.803988,-9.570094,0.031001,-0.088117,-0.031001
10.231309,0.537189,0.803988,-9.570094,0.038485,-0.097891,-0.037110
10.239621,0.506082,0.805185,-9.556933,0.038485,-0.097891,-0.037110
10.247891,0.507278,0.817149,-9.530612,0.035125,-0.093921,-0.036194
10.256178,0.533599,0.826720,-9.547362,0.034819,-0.093462,-0.034514
10.264557,0.528814,0.802792,-9.537791,0.034208,-0.089339,-0.034514
10.273442,0.544367,0.823131,-9.554541,0.029627,-0.081703,-0.029932
10.281843,0.544367,0.823131,-9.523434,0.036041,-0.093004,-0.034819
10.290559,0.530010,0.793221,-9.523434,0.036041,-0.098502,-0.034208
10.298945,0.519243,0.815953,-9.547362,0.037263,-0.098502,-0.034208
10.307284,0.531207,0.812363,-9.574880,0.034667,-0.093615,-0.030849
10.315752,0.543171,0.801596,-9.544969,0.034208,-0.092241,-0.031307
10.324251,0.539581,0.805185,-9.530612,0.029322,-0.088270,-0.028558
10.332582,0.525225,0.835095,-9.541380,0.030391,-0.088881,-0.029322
10.340834,0.525225,0.835095,-9.541380,0.030238,-0.084910,-0.031460
10.349092,0.531207,0.820738,-9.522238,0.030238,-0.084910,-0.031460
10.357286,0.518046,0.798006,-9.518648,0.038332,-0.094837,-0.039095
10.365611,0.525225,0.827917,-9.540184,0.036041,-0.093615,-0.038332
10.374781,0.525225,0.820738,-9.564112,0.033292,-0.087201,-0.033598
10.383077,0.546760,0.786042,-9.510273,0.034972,-0.087201,-0.034514
10.391403,0.546760,0.786042,-9.510273,0.036652,-0.092699,-0.035277
10.399650,0.546760,0.771685,-9.530612,0.036652,-0.092699,-0.035277
10.408448,0.544367,0.784846,-9.556933,0.030543,-0.082009,-0.031460
12.418503,1.030110,0.234497,-10.058230,0.067959,-0.105069,-0.041844
12.423158,0.149551,0.190229,-9.022138,0.067959,-0.105069,-0.041844
12.427777,0.149551,0.190229,-9.022138,0.014203,-0.117592,-0.021533
12.432709,0.932004,1.009771,-10.677971,0.014203,-0.117592,-0.021533
12.437279,0.932004,1.009771,-10.677971,0.014203,-0.117592,-0.021533
12.441978,0.576670,0.449851,-9.208778,0.055589,-0.076053,-0.004123
12.446544,0.576670,0.449851,-9.208778,0.055589,-0.076053,-0.004123
12.451230,0.378066,1.597209,-9.352347,-0.003360,-0.064752,-0.052687
12.455798,0.378066,1.597209,-9.352347,-0.003360,-0.064752,-0.052687
12.460336,0.327817,0.014357,-9.096315,0.079871,-0.118355,-0.052534
12.465060,0.327817,0.014357,-9.096315,0.079871,-0.118355,-0.052534
12.469696,0.720240,0.666401,-10.351351,0.032223,-0.117286,-0.031001
12.474293,0.720240,0.666401,-10.351351,0.032223,-0.117286,-0.031001
12.478909,0.720240,0.457029,-9.175278,0.047342,-0.061697,-0.023213
12.483446,0.855434,0.457029,-9.175278,0.047342,-0.061697,-0.023213
12.488016,0.855434,0.457029,-9.175278,0.047342,-0.030085,-0.033139
12.492746,1.092324,-0.004786,-10.791630,0.047342,-0.030085,-0.033139
12.497402,1.092324,-0.004786,-10.791630,0.047342,-0.030085,-0.033139
12.501932,0.794417,1.633101,-9.154939,0.024435,-0.057116,-0.056505
12.506465,0.794417,1.633101,-9.154939,0.024435,-0.057116,-0.056505
12.511075,0.484547,0.677169,-9.309276,0.047037,-0.062614,-0.032070
12.515659,0.484547,0.677169,-9.309276,0.047037,-0.062614,-0.032070
12.520206,0.406780,1.284946,-9.844072,-0.002138,-0.035125,-0.040928
12.524768,0.406780,1.284946,-9.844072,-0.002138,-0.035125,-0.040928
12.529366,0.510868,0.195015,-8.912068,0.076969,-0.080329,-0.037263
12.534067,0.510868,0.195015,-8.912068,0.076969,-0.080329,-0.037263
12.538642,0.510868,0.195015,-10.213763,0.022602,-0.100182,-0.064446
12.543380,0.903291,0.130409,-10.213763,0.022602,-0.100182,-0.064446
12.547966,0.903291,0.130409,-10.213763,0.082009,-0.110567,-0.070860
12.552584,0.599402,0.467797,-9.381061,0.082009,-0.110567,-0.070860
12.557180,0.599402,0.467797,-9.381061,0.082009,-0.110567,-0.070860
12.561727,0.874577,1.471586,-9.430114,-0.002138,-0.096364,-0.071319
12.566310,0.874577,1.471586,-9.430114,-0.002138,-0.096364,-0.071319
12.570860,1.111466,1.113859,-9.729217,0.055741,-0.060628,-0.053603
12.575505,1.111466,1.113859,-9.729217,0.055741,-0.060628,-0.053603
12.580025,0.439083,-0.611366,-10.376475,0.052229,-0.077427,-0.078954
12.584577,0.439083,-0.611366,-10.376475,0.052229,-0.077427,-0.078954
12.589166,0.380459,1.485943,-9.682557,0.013744,-0.098807,-0.099724
12.593941,0.380459,1.485943,-9.682557,0.013744,-0.098807,-0.099724
12.598729,0.380459,0.535992,-8.179864,0.073609,-0.153174,-0.086132
12.603268,-0.044267,0.535992,-8.179864,0.073609,-0.153174,-0.086132
12.607842,-0.044267,0.535992,-8.179864,0.037110,-0.091783,-0.072693
12.612500,0.611366,1.171287,-10.183853,0.037110,-0.091783,-0.072693
12.617114,0.611366,1.171287,-10.183853,0.037110,-0.091783,-0.072693
12.621711,0.739382,1.228714,-8.641679,0.037568,-0.086132,-0.092088
12.626316,0.739382,1.228714,-8.641679,0.037568,-0.086132,-0.092088
12.630878,1.092324,-0.649651,-10.138389,0.064294,-0.060781,-0.078649
12.635543,1.092324,-0.649651,-10.138389,0.064294,-0.060781,-0.078649
12.640123,0.739382,0.806381,-10.555937,0.031918,-0.073304,-0.088270
12.644888,0.739382,0.806381,-10.555937,0.031918,-0.073304,-0.088270
12.649451,0.209372,-0.218943,-8.749356,0.068722,-0.123089,-0.072540
12.654451,0.209372,-0.218943,-8.749356,0.068722,-0.123089,-0.072540
12.659026,1.080359,2.440679,-10.177871,0.012217,-0.079107,-0.060170
12.663626,1.080359,2.440679,-10.177871,0.012217,-0.079107,-0.060170
12.668373,1.080359,2.440679,-8.886943,0.112552,-0.084910,-0.051618
12.673082,0.101695,-1.130609,-8.886943,0.112552,-0.084910,-0.051618
12.677908,0.101695,-1.130609,-8.886943,-0.024129,-0.043066,-0.063225
12.682780,0.835095,2.455036,-10.937592,-0.024129,-0.043066,-0.063225
12.687539,0.835095,2.455036,-10.937592,-0.024129,-0.104763,-0.083994
12.692238,-0.154337,-0.563510,-8.500502,0.114843,-0.104763,-0.083994
12.697167,-0.154337,-0.563510,-8.500502,0.114843,-0.104763,-0.083994
12.701941,1.010968,2.556731,-9.628718,0.005956,-0.057879,-0.064141
12.706736,1.010968,2.556731,-9.628718,0.005956,-0.057879,-0.064141
12.711294,0.869791,-0.776471,-9.093922,0.095142,-0.048258,-0.067195
12.715936,0.869791,-0.776471,-9.093922,0.095142,-0.048258,-0.067195
12.720666,1.329213,1.469193,-10.587044,0.005498,-0.014355,-0.095142
12.725127,1.329213,1.469193,-10.587044,0.005498,-0.014355,-0.095142
12.729550,0.089731,-0.326620,-9.477970,0.112094,-0.086896,-0.084452
12.733987,0.089731,-0.326620,-9.477970,0.112094,-0.086896,-0.084452
12.738816,0.801596,1.143769,-9.981659,-0.002443,-0.079107,-0.064294
12.744014,0.801596,1.143769,-9.981659,-0.002443,-0.079107,-0.064294
12.748540,1.104288,1.086341,-10.010373,0.076816,-0.092088,-0.069333
12.752982,1.104288,1.086341,-10.010373,0.076816,-0.092088,-0.069333
12.757513,1.104288,1.086341,-10.010373,0.076816,-0.092699,-0.086896
12.761963,0.224925,0.382852,-8.776873,0.033750,-0.092699,-0.086896
12.766450,0.224925,0.382852,-8.776873,0.033750,-0.092699,-0.086896
12.770930,0.868595,0.940379,-10.151550,0.063377,-0.082772,-0.053909
12.775441,0.868595,0.940379,-10.151550,0.063377,-0.082772,-0.053909
12.779957,-0.044267,0.667598,-8.061419,0.028711,-0.089186,-0.075442
12.784392,-0.044267,0.667598,-8.061419,0.028711,-0.089186,-0.075442
12.788823,0.999003,1.978864,-10.341779,0.069180,-0.097128,-0.054062
12.793231,0.999003,1.978864,-10.341779,0.069180,-0.097128,-0.054062
12.797910,0.999003,1.978864,-10.341779,0.039859,-0.098197,-0.063530
12.802357,0.265603,0.089731,-8.539984,0.039859,-0.098197,-0.063530
12.807108,0.265603,0.089731,-8.539984,0.039859,-0.098197,-0.058643
14.813278,1.025324,0.945165,-10.576276,0.020769,-0.080634,0.030696
14.818128,0.821935,0.966700,-9.297312,0.035277,-0.127671,0.003665
14.822910,0.821935,0.966700,-9.297312,0.035277,-0.127671,0.003665
14.827687,0.942772,-0.117248,-10.441081,0.051465,-0.129045,0.025045
14.832437,0.942772,-0.117248,-10.441081,0.051465,-0.129045,0.025045
14.837160,0.360120,1.493121,-9.293723,0.006414,-0.077122,0.014050
14.841841,0.360120,1.493121,-9.293723,0.006414,-0.077122,0.014050
14.846649,0.340977,-0.798006,-8.894122,0.095753,-0.091172,0.024129
14.851368,0.340977,-0.798006,-8.894122,0.095753,-0.091172,0.024129
14.856137,0.897308,1.332802,-11.137393,0.015272,-0.106596,0.000458
14.861142,0.897308,1.332802,-11.137393,0.015272,-0.106596,0.000458
14.866035,0.594616,1.601995,-7.846065,0.067501,-0.108429,-0.006109
14.870569,0.594616,1.601995,-7.846065,0.067501,-0.108429,-0.006109
14.875031,0.647259,0.112463,-11.082358,0.037721,-0.039706,-0.011912
14.880097,0.647259,0.112463,-11.082358,0.037721,-0.039706,-0.011912
16.886905,0.985843,0.622134,-9.659825,0.018326,-0.098655,-0.018937
16.892324,0.625723,0.445065,-9.882357,0.025962,-0.128434,-0.031460
16.897192,0.625723,0.445065,-9.882357,0.025962,-0.128434,-0.031460
16.902048,0.541974,1.153340,-9.324830,0.036499,-0.135459,-0.026878
16.906888,0.541974,1.153340,-9.324830,0.036499,-0.135459,-0.026878
16.911721,0.369691,0.741775,-9.144172,0.041844,-0.126755,-0.021838
16.917264,0.369691,0.741775,-9.144172,0.041844,-0.126755,-0.021838
16.922386,0.468993,1.243071,-9.519845,0.029016,-0.097586,-0.006109
16.927819,0.468993,1.243071,-9.519845,0.029016,-0.097586,-0.006109
16.933381,0.303888,-0.062213,-9.680164,0.054214,-0.100029,-0.005498
16.939205,0.303888,-0.062213,-9.680164,0.054214,-0.100029,-0.005498
16.944813,1.137787,2.204986,-10.004391,0.010232,-0.100640,-0.017257
16.950617,1.137787,2.204986,-10.004391,0.055131,-0.120646,-0.029169
16.956033,0.366102,0.062213,-9.131011,0.055131,-0.120646,-0.029169
16.961595,0.936790,0.967897,-10.913664,0.002443,-0.094226,-0.034972
16.967752,0.936790,0.967897,-10.913664,0.002443,-0.094226,-0.034972
16.973396,0.531207,-0.332602,-8.504092,0.054062,-0.158825,-0.025504
16.979352,0.531207,-0.332602,-8.504092,0.054062,-0.158825,-0.025504
16.984716,0.758525,1.503889,-9.775877,-0.005803,-0.140041,-0.026420
16.989898,0.758525,1.503889,-9.775877,-0.005803,-0.137292,-0.025351
16.995313,0.123230,1.237089,-8.860622,0.016035,-0.137292,-0.025351
17.000729,0.123230,1.237089,-8.860622,0.012981,-0.078649,0.010996
17.005758,0.959522,0.293121,-9.968499,0.012981,-0.078649,0.010996
17.011098,0.460618,1.623530,-9.430114,0.000153,-0.071166,0.002902
17.016588,0.460618,1.623530,-9.430114,0.000153,-0.071166,0.002902
17.021477,0.302692,0.691526,-9.013763,0.032834,-0.130572,0.019090
17.026273,0.302692,0.691526,-9.013763,0.032834,-0.130572,0.019090
17.030789,0.302692,0.691526,-9.013763,0.013286,-0.125075,0.041386
17.035301,1.195215,0.172283,-10.465010,0.013286,-0.125075,0.041386
17.040985,1.195215,0.172283,-10.236495,0.056505,-0.118508,0.010232
17.045578,0.205783,0.056231,-10.236495,0.056505,-0.118508,0.010232
17.050258,0.205783,0.056231,-10.236495,-0.027031,-0.171348,0.023824
17.055089,1.026521,2.417947,-9.805787,-0.027031,-0.171348,0.023824
17.061419,0.948754,-0.028714,-8.934800,0.093615,-0.100945,0.071929
17.066013,0.948754,-0.028714,-8.934800,0.093615,-0.100945,0.071929
17.070515,0.948754,-0.028714,-8.934800,-0.014813,-0.068264,0.001222
17.075262,0.069392,1.020539,-9.832108,-0.014813,-0.068264,0.001222
19.082088,0.533599,-0.467797,-9.628718,0.080329,-0.064752,-0.107818
19.087363,0.533599,-0.467797,-9.628718,-0.049938,-0.062919,-0.108581
19.092188,0.819542,0.376870,-9.990034,-0.049938,-0.062919,-0.108581
19.096982,0.819542,0.376870,-9.990034,0.051313,-0.065973,-0.084299
19.101760,0.693919,1.025324,-9.561719,0.051313,-0.065973,-0.084299
19.106643,0.693919,1.025324,-9.561719,0.051313,-0.065973,-0.099571
19.112047,0.766900,0.434297,-9.483952,-0.005345,-0.079871,-0.099571
19.117312,0.766900,0.434297,-9.483952,0.008552,-0.062461,-0.085063
19.122055,1.373480,1.582852,-10.208978,0.008552,-0.062461,-0.085063
19.127401,1.373480,1.582852,-9.262616,0.048258,-0.093310,-0.114690
19.133451,-0.065803,-0.734597,-9.262616,0.048258,-0.093310,-0.114690
