timestamp,accX,accY,accZ,gyroX,gyroY,gyroZ
0.000091,0.503689,0.798006,-9.552148,0.033598,-0.090713,-0.034361
0.005293,0.503689,0.798006,-9.552148,0.033598,-0.090713,-0.034361
0.009661,0.503689,0.798006,-9.552148,0.032376,-0.088270,-0.032376
0.013844,0.478565,0.811167,-9.550951,0.032376,-0.088270,-0.032376
0.017968,0.478565,0.811167,-9.550951,0.032376,-0.088270,-0.032376
0.022040,0.501296,0.813560,-9.572487,0.034514,-0.091783,-0.034208
0.026102,0.501296,0.813560,-9.572487,0.034514,-0.091783,-0.034208
0.030235,0.478565,0.789631,-9.567701,0.033903,-0.091935,-0.033598
0.034400,0.478565,0.789631,-9.567701,0.033903,-0.091935,-0.033598
0.038478,0.478565,0.789631,-9.567701,0.033903,-0.091935,-0.033598
0.042548,0.495314,0.815953,-9.527023,0.035125,-0.093921,-0.034819
0.046613,0.495314,0.815953,-9.527023,0.035125,-0.093921,-0.034819
0.050734,0.466600,0.801596,-9.500702,0.034667,-0.091019,-0.036346
0.054929,0.466600,0.801596,-9.500702,0.034667,-0.091019,-0.036346
0.059171,0.466600,0.801596,-9.500702,0.032223,-0.087965,-0.034819
0.063346,0.506082,0.802792,-9.533005,0.032223,-0.087965,-0.034819
0.067436,0.506082,0.802792,-9.533005,0.032223,-0.087965,-0.034819
0.071604,0.506082,0.795614,-9.586844,0.036805,-0.096517,-0.039859
0.075877,0.506082,0.795614,-9.586844,0.036805,-0.096517,-0.039859
0.080558,0.485743,0.805185,-9.530612,0.032529,-0.087812,-0.035583
0.084653,0.485743,0.805185,-9.530612,0.032529,-0.087812,-0.035583
0.088818,0.485743,0.805185,-9.530612,0.032529,-0.087812,-0.036346
0.093091,0.495314,0.782453,-9.538987,0.033903,-0.090255,-0.036346
0.097190,0.495314,0.782453,-9.538987,0.033903,-0.090255,-0.036346
0.101248,0.480957,0.787239,-9.540184,0.034819,-0.092546,-0.034819
0.105301,0.480957,0.787239,-9.540184,0.034819,-0.092546,-0.034819
0.109543,0.480957,0.787239,-9.540184,0.034208,-0.092088,-0.034361
0.113759,0.458226,0.796810,-9.541380,0.034208,-0.092088,-0.034361
0.117902,0.458226,0.796810,-9.541380,0.034208,-0.092088,-0.034361
0.121984,0.494118,0.808774,-9.482756,0.033139,-0.089339,-0.032223
0.126045,0.494118,0.808774,-9.482756,0.033139,-0.089339,-0.032223
0.130101,0.504886,0.778864,-9.525827,0.032376,-0.088270,-0.031918
0.134309,0.504886,0.778864,-9.525827,0.032376,-0.088270,-0.031918
0.138404,0.504886,0.778864,-9.525827,0.032376,-0.088270,-0.031918
0.142466,0.478565,0.781257,-9.560523,0.034819,-0.091019,-0.034056
0.146514,0.478565,0.781257,-9.560523,0.034819,-0.091019,-0.034056
0.150582,0.479761,0.793221,-9.524630,0.032223,-0.090866,-0.034972
0.154733,0.479761,0.793221,-9.524630,0.032223,-0.090866,-0.034972
0.158985,0.479761,0.793221,-9.524630,0.031765,-0.087965,-0.033445
0.163177,0.482154,0.818345,-9.521041,0.031765,-0.087965,-0.033445
0.167282,0.482154,0.818345,-9.521041,0.031765,-0.087965,-0.033445
0.171379,0.480957,0.813560,-9.536594,0.032681,-0.088117,-0.033903
0.176124,0.480957,0.813560,-9.536594,0.032681,-0.088117,-0.033903
0.180270,0.488136,0.792024,-9.533005,0.033598,-0.089034,-0.037110
0.184321,0.488136,0.792024,-9.533005,0.033598,-0.089034,-0.037110
0.188439,0.488136,0.792024,-9.533005,0.033598,-0.089034,-0.037110
0.192572,0.470190,0.786042,-9.538987,0.034972,-0.093921,-0.037263
0.196767,0.470190,0.786042,-9.538987,0.034972,-0.093921,-0.037263
0.200840,0.510868,0.789631,-9.542577,0.036652,-0.095906,-0.037568
0.204879,0.510868,0.789631,-9.542577,0.036652,-0.095906,-0.037568
0.209044,0.510868,0.789631,-9.542577,0.033903,-0.090255,-0.036957
0.213284,0.478565,0.806381,-9.534202,0.033903,-0.090255,-0.036957
0.217444,0.478565,0.806381,-9.534202,0.033903,-0.090255,-0.036957
0.221500,0.479761,0.789631,-9.534202,0.037415,-0.095753,-0.038026
0.225528,0.479761,0.789631,-9.534202,0.037415,-0.095753,-0.038026
0.229606,0.479761,0.789631,-9.568898,0.035430,-0.092852,-0.036194
0.233716,0.503689,0.789631,-9.568898,0.035430,-0.092852,-0.036194
0.237855,0.503689,0.789631,-9.568898,0.035430,-0.092852,-0.036194
0.241956,0.483350,0.784846,-9.559326,0.034056,-0.091630,-0.034667
0.246013,0.483350,0.784846,-9.559326,0.034056,-0.091630,-0.034667
0.250068,0.489332,0.780060,-9.536594,0.031001,-0.085063,-0.031918
0.254164,0.489332,0.780060,-9.536594,0.031001,-0.085063,-0.031918
0.258272,0.489332,0.780060,-9.536594,0.031001,-0.085063,-0.031918
0.262592,0.508475,0.802792,-9.530612,0.032987,-0.089492,-0.034514
0.266668,0.508475,0.802792,-9.530612,0.032987,-0.089492,-0.034514
0.270723,0.485743,0.796810,-9.524630,0.033598,-0.088881,-0.034972
0.274917,0.485743,0.796810,-9.524630,0.033598,-0.088881,-0.034972
0.279029,0.485743,0.796810,-9.524630,0.035277,-0.091783,-0.035430
0.283092,0.494118,0.780060,-9.572487,0.035277,-0.091783,-0.035430
0.287166,0.494118,0.780060,-9.572487,0.035277,-0.091783,-0.035430
0.291232,0.463011,0.789631,-9.511470,0.034819,-0.091172,-0.036346
0.295392,0.463011,0.789631,-9.511470,0.034819,-0.091172,-0.036346
0.299487,0.463011,0.789631,-9.538987,0.031765,-0.088881,-0.034819
0.303539,0.494118,0.798006,-9.538987,0.031765,-0.088881,-0.034819
0.307592,0.494118,0.798006,-9.538987,0.031765,-0.088881,-0.034819
0.311849,0.508475,0.777667,-9.548559,0.033903,-0.091935,-0.036346
0.316262,0.508475,0.777667,-9.548559,0.033903,-0.091935,-0.036346
0.320389,0.479761,0.788435,-9.541380,0.034819,-0.089339,-0.035888
0.324459,0.479761,0.788435,-9.541380,0.034819,-0.089339,-0.035888
0.328521,0.479761,0.788435,-9.541380,0.034819,-0.089339,-0.036499
0.332605,0.464208,0.762114,-9.547362,0.035277,-0.089644,-0.036499
0.336804,0.464208,0.762114,-9.547362,0.035277,-0.089644,-0.036499
0.340873,0.489332,0.794417,-9.568898,0.036652,-0.093921,-0.037415
0.344927,0.489332,0.794417,-9.568898,0.036652,-0.093921,-0.037415
0.349029,0.489332,0.794417,-9.568898,0.034361,-0.091019,-0.034361
0.353143,0.470190,0.789631,-9.577272,0.034361,-0.091019,-0.034361
0.357324,0.470190,0.789631,-9.577272,0.034361,-0.091019,-0.034361
0.361632,0.501296,0.771685,-9.487542,0.036194,-0.095142,-0.037721
0.365733,0.501296,0.771685,-9.487542,0.036194,-0.095142,-0.037721
0.369834,0.502493,0.807578,-9.542577,0.037721,-0.094531,-0.038332
0.374274,0.502493,0.807578,-9.542577,0.037721,-0.094531,-0.038332
0.378794,0.502493,0.807578,-9.542577,0.032070,-0.086285,-0.032987
0.382978,0.494118,0.788435,-9.531809,0.032070,-0.086285,-0.032987
0.387083,0.494118,0.788435,-9.531809,0.032070,-0.086285,-0.032987
0.391154,0.477368,0.798006,-9.553344,0.026114,-0.078496,-0.028711
0.395288,0.477368,0.798006,-9.553344,0.026114,-0.078496,-0.028711
0.399440,0.477368,0.777667,-9.553344,0.031001,-0.087506,-0.033903
0.403498,0.506082,0.777667,-9.553344,0.031001,-0.087506,-0.033903
0.407566,0.506082,0.777667,-9.553344,0.031001,-0.087506,-0.033903
0.411955,0.489332,0.807578,-9.497113,0.034667,-0.091630,-0.034667
0.416158,0.489332,0.807578,-9.497113,0.034667,-0.091630,-0.034667
0.420274,0.465404,0.788435,-9.530612,0.031918,-0.086437,-0.032681
0.424343,0.465404,0.788435,-9.530612,0.031918,-0.086437,-0.032681
0.428411,0.465404,0.788435,-9.530612,0.031918,-0.090255,-0.034667
0.432464,0.471386,0.794417,-9.582058,0.032070,-0.090255,-0.034667
0.436645,0.471386,0.794417,-9.582058,0.032070,-0.090255,-0.034667
0.440759,0.497707,0.792024,-9.549755,0.031001,-0.087201,-0.032681
0.444817,0.497707,0.792024,-9.549755,0.031001,-0.087201,-0.032681
0.448904,0.497707,0.792024,-9.549755,0.033903,-0.091477,-0.036499
0.452958,0.503689,0.782453,-9.535398,0.033903,-0.091477,-0.036499
0.457140,0.503689,0.782453,-9.535398,0.033903,-0.091477,-0.036499
0.461382,0.465404,0.798006,-9.500702,0.033598,-0.089950,-0.036957
0.465532,0.465404,0.798006,-9.500702,0.033598,-0.089950,-0.036957
0.469616,0.470190,0.794417,-9.541380,0.035277,-0.090561,-0.035125
0.473676,0.470190,0.794417,-9.541380,0.035277,-0.090561,-0.035125
0.477941,0.470190,0.794417,-9.541380,0.035277,-0.090561,-0.035125
0.482024,0.503689,0.794417,-9.566505,0.032223,-0.087201,-0.033445
0.486099,0.503689,0.794417,-9.566505,0.032223,-0.087201,-0.033445
0.490216,0.507278,0.795614,-9.550951,0.034361,-0.089339,-0.034056
0.494303,0.507278,0.795614,-9.550951,0.034361,-0.089339,-0.034056
0.498484,0.507278,0.795614,-9.550951,0.036499,-0.092852,-0.037263
0.502554,0.477368,0.802792,-9.524630,0.036499,-0.092852,-0.037263
0.506618,0.477368,0.802792,-9.524630,0.036499,-0.092852,-0.037263
0.510767,0.463011,0.783649,-9.519845,0.034667,-0.093310,-0.034819
0.515129,0.463011,0.783649,-9.519845,0.034667,-0.093310,-0.034819
0.519390,0.495314,0.805185,-9.517452,0.033445,-0.088575,-0.034361
0.523558,0.495314,0.805185,-9.517452,0.033445,-0.088575,-0.034361
0.527714,0.495314,0.805185,-9.517452,0.033445,-0.088575,-0.034361
0.531798,0.507278,0.786042,-9.576076,0.034208,-0.092852,-0.037263
0.535872,0.507278,0.786042,-9.576076,0.034208,-0.092852,-0.037263
0.540293,0.509671,0.789631,-9.540184,0.033598,-0.089186,-0.034361
0.544368,0.509671,0.789631,-9.540184,0.033598,-0.089186,-0.034361
0.548435,0.509671,0.789631,-9.540184,0.035125,-0.093004,-0.036499
0.552492,0.501296,0.799203,-9.527023,0.035125,-0.093004,-0.036499
0.556546,0.501296,0.799203,-9.527023,0.035125,-0.093004,-0.036499
0.560811,0.502493,0.787239,-9.548559,0.035583,-0.091172,-0.034972
0.566635,0.502493,0.787239,-9.548559,0.035583,-0.092546,-0.037415
0.574843,0.496511,0.801596,-9.574880,0.034514,-0.092546,-0.037415
0.583802,0.479761,0.776471,-9.533005,0.035430,-0.092699,-0.036957
0.592059,0.486939,0.783649,-9.567701,0.033445,-0.088423,-0.034972
0.600311,0.491725,0.783649,-9.537791,0.034056,-0.089950,-0.034819
0.608532,0.491725,0.782453,-9.521041,0.033903,-0.090561,-0.036194
0.616975,0.491725,0.782453,-9.521041,0.037263,-0.094990,-0.037110
0.626115,0.468993,0.780060,-9.518648,0.037263,-0.094990,-0.037110
0.634440,0.471386,0.811167,-9.529416,0.037263,-0.095295,-0.037874
0.642872,0.479761,0.778864,-9.538987,0.040623,-0.103084,-0.040317
0.651108,0.490529,0.780060,-9.558130,0.038179,-0.098044,-0.039401
0.659348,0.486939,0.780060,-9.530612,0.032223,-0.086285,-0.033903
0.667934,0.486939,0.780060,-9.530612,0.032834,-0.086743,-0.033292
0.676150,0.474975,0.792024,-9.549755,0.032834,-0.086743,-0.034361
0.684507,0.507278,0.823131,-9.586844,0.030849,-0.084147,-0.034361
0.692721,0.466600,0.787239,-9.567701,0.034056,-0.088575,-0.035430
0.701061,0.453440,0.811167,-9.515059,0.041692,-0.102778,-0.040317
0.709331,0.510868,0.802792,-9.487542,0.029627,-0.080787,-0.032223
0.717766,0.510868,0.802792,-9.487542,0.030238,-0.082314,-0.031765
0.726104,0.495314,0.789631,-9.504291,0.030238,-0.082314,-0.032834
0.734325,0.506082,0.808774,-9.536594,0.032987,-0.088881,-0.032834
0.742542,0.477368,0.789631,-9.536594,0.038790,-0.099571,-0.035888
0.750855,0.488136,0.792024,-9.576076,0.033903,-0.090713,-0.030543
0.759058,0.447458,0.784846,-9.546166,0.037415,-0.100029,-0.034208
0.767634,0.447458,0.784846,-9.546166,0.037874,-0.098349,-0.035736
0.775904,0.455833,0.788435,-9.506684,0.037874,-0.098349,-0.035736
0.784186,0.478565,0.795614,-9.491131,0.040775,-0.105222,-0.038179
0.792434,0.503689,0.809970,-9.572487,0.030543,-0.085368,-0.031918
0.800622,0.500100,0.826720,-9.597611,0.024740,-0.072693,-0.028558
0.808946,0.484547,0.807578,-9.565308,0.034972,-0.090561,-0.036499
0.817471,0.484547,0.807578,-9.565308,0.033750,-0.089797,-0.037110
0.825906,0.521635,0.796810,-9.564112,0.033750,-0.089797,-0.032529
0.834141,0.464208,0.784846,-9.543773,0.028405,-0.081092,-0.032529
0.842324,0.477368,0.766900,-9.541380,0.040928,-0.101251,-0.040775
0.850657,0.495314,0.765703,-9.559326,0.037263,-0.095753,-0.039706
0.858841,0.479761,0.766900,-9.528220,0.036805,-0.097433,-0.038637
0.867371,0.479761,0.766900,-9.528220,0.037415,-0.098349,-0.038943
0.875721,0.471386,0.787239,-9.570094,0.037415,-0.098349,-0.038179
0.883967,0.476172,0.782453,-9.543773,0.037568,-0.097433,-0.038179
0.892300,0.466600,0.786042,-9.510273,0.035583,-0.094531,-0.036346
0.900514,0.504886,0.809970,-9.595219,0.038637,-0.102778,-0.037721
0.908845,0.473779,0.801596,-9.568898,0.036957,-0.100029,-0.038026
0.917237,0.473779,0.801596,-9.568898,0.030543,-0.085827,-0.032376
0.925668,0.518046,0.809970,-9.589237,0.030543,-0.085827,-0.034208
0.934215,0.474975,0.772882,-9.525827,0.033750,-0.089339,-0.034208
0.942406,0.497707,0.794417,-9.534202,0.041081,-0.099571,-0.040012
0.950693,0.485743,0.787239,-9.553344,0.036652,-0.094684,-0.036957
0.958875,0.495314,0.763310,-9.537791,0.035736,-0.092546,-0.035736
0.967245,0.495314,0.763310,-9.537791,0.037263,-0.095906,-0.038332
0.975710,0.509671,0.787239,-9.566505,0.037263,-0.095906,-0.036957
0.985117,0.501296,0.783649,-9.553344,0.034819,-0.091630,-0.036957
0.993618,0.485743,0.787239,-9.567701,0.029932,-0.083536,-0.032529
1.001875,0.515653,0.789631,-9.524630,0.038026,-0.096975,-0.034819
1.010325,0.494118,0.821935,-9.549755,0.030391,-0.085827,-0.028405
1.018767,0.447458,0.813560,-9.528220,0.033598,-0.092088,-0.032376
1.027072,0.447458,0.813560,-9.528220,0.040623,-0.104916,-0.037721
1.035390,0.471386,0.811167,-9.541380,0.040623,-0.104916,-0.037721
1.043615,0.496511,0.821935,-9.568898,0.036652,-0.097738,-0.036194
1.051910,0.476172,0.819542,-9.556933,0.029322,-0.079107,-0.032223
1.060210,0.472582,0.799203,-9.555737,0.033598,-0.087354,-0.036499
1.068702,0.498904,0.789631,-9.572487,0.030543,-0.082467,-0.035430
1.077025,0.498904,0.789631,-9.572487,0.023518,-0.070402,-0.030696
1.085226,0.501296,0.781257,-9.588040,0.023518,-0.070402,-0.030696
1.093549,0.448654,0.793221,-9.509077,0.030696,-0.083230,-0.036957
1.101746,0.464208,0.789631,-9.555737,0.031154,-0.085063,-0.036346
1.110045,0.496511,0.796810,-9.573683,0.028711,-0.080481,-0.034514
1.118507,0.500100,0.790828,-9.571290,0.027947,-0.078038,-0.034361
1.126908,0.500100,0.790828,-9.571290,0.032834,-0.087048,-0.038332
1.135365,0.463011,0.800399,-9.550951,0.032834,-0.087048,-0.039859
1.143559,0.442672,0.793221,-9.573683,0.036041,-0.092699,-0.039859
1.151800,0.496511,0.789631,-9.515059,0.038485,-0.095600,-0.038179
1.160216,0.500100,0.801596,-9.529416,0.034056,-0.084910,-0.031765
1.168726,0.439083,0.795614,-9.523434,0.037110,-0.096364,-0.034361
1.177116,0.439083,0.795614,-9.523434,0.034056,-0.092546,-0.031460
1.185302,0.491725,0.777667,-9.547362,0.034056,-0.092546,-0.031918
1.193574,0.497707,0.762114,-9.553344,0.031918,-0.088423,-0.031918
1.201802,0.463011,0.799203,-9.501899,0.034667,-0.085521,-0.033903
1.210083,0.486939,0.788435,-9.568898,0.038026,-0.098960,-0.036346
1.218523,0.471386,0.808774,-9.516255,0.027336,-0.076358,-0.034514
1.226950,0.471386,0.808774,-9.516255,0.027642,-0.080481,-0.034208
1.235322,0.463011,0.830309,-9.554541,0.027642,-0.080481,-0.036346
1.243568,0.459422,0.790828,-9.552148,0.033750,-0.085368,-0.036346
1.251789,0.532403,0.782453,-9.548559,0.039248,-0.097433,-0.038026
1.260144,0.477368,0.806381,-9.534202,0.036041,-0.090103,-0.034208
1.268477,0.467797,0.788435,-9.534202,0.030238,-0.082620,-0.028405
1.277005,0.467797,0.788435,-9.515059,0.043219,-0.104763,-0.037568
1.285863,0.497707,0.745364,-9.515059,0.039706,-0.100945,-0.035125
1.294138,0.506082,0.770489,-9.542577,0.039706,-0.100945,-0.035125
1.302531,0.489332,0.763310,-9.537791,0.032070,-0.085674,-0.031001
1.310870,0.506082,0.809970,-9.527023,0.038637,-0.097738,-0.036805
1.319329,0.486939,0.807578,-9.536594,0.029016,-0.079718,-0.035888
1.327687,0.516850,0.820738,-9.566505,0.040317,-0.101251,-0.042761
1.336023,0.516850,0.820738,-9.566505,0.035888,-0.089797,-0.039706
1.344396,0.457029,0.807578,-9.515059,0.035888,-0.089797,-0.039706
1.352639,0.467797,0.793221,-9.537791,0.037110,-0.094226,-0.041386
1.360948,0.480957,0.809970,-9.572487,0.041233,-0.099571,-0.044288
1.369365,0.489332,0.793221,-9.556933,0.037568,-0.094379,-0.039554
1.377832,0.492921,0.782453,-9.585647,0.026573,-0.074373,-0.032681
1.386696,0.492921,0.782453,-9.585647,0.026267,-0.074067,-0.033292
1.394923,0.473779,0.776471,-9.550951,0.026267,-0.074067,-0.041386
1.403236,0.483350,0.759721,-9.597611,0.037415,-0.093157,-0.041386
1.411448,0.498904,0.780060,-9.613165,0.033139,-0.089034,-0.039706
1.419787,0.508475,0.781257,-9.566505,0.029016,-0.077580,-0.033139
1.428331,0.460618,0.806381,-9.524630,0.040012,-0.099571,-0.038790
1.436657,0.460618,0.806381,-9.524630,0.038637,-0.099266,-0.035736
1.445030,0.509671,0.796810,-9.560523,0.038637,-0.099266,-0.029322
1.453227,0.503689,0.812363,-9.550951,0.029932,-0.083078,-0.029322
1.461687,0.463011,0.809970,-9.549755,0.031612,-0.086285,-0.031918
1.470138,0.453440,0.829113,-9.535398,0.032376,-0.089950,-0.038026
1.478561,0.502493,0.824327,-9.556933,0.034208,-0.090561,-0.040775
1.486878,0.502493,0.824327,-9.529416,0.030849,-0.083383,-0.041386
1.495069,0.503689,0.824327,-9.529416,0.030849,-0.088117,-0.043982
1.503360,0.513260,0.806381,-9.555737,0.033292,-0.088117,-0.043982
1.511811,0.471386,0.819542,-9.515059,0.036499,-0.087201,-0.044593
1.520259,0.464208,0.821935,-9.538987,0.032223,-0.079107,-0.041692
1.528693,0.500100,0.801596,-9.533005,0.036346,-0.084758,-0.043982
1.536905,0.500100,0.769292,-9.536594,0.031918,-0.081551,-0.039554
1.545225,0.539581,0.769292,-9.536594,0.031918,-0.074678,-0.040470
1.553654,0.488136,0.748953,-9.516255,0.027947,-0.074678,-0.040470
1.561963,0.479761,0.790828,-9.525827,0.030849,-0.082314,-0.040470
1.570642,0.492921,0.769292,-9.554541,0.034361,-0.090255,-0.040164
1.579219,0.506082,0.770489,-9.506684,0.036194,-0.086285,-0.037110
1.587637,0.504886,0.784846,-9.580862,0.031154,-0.080176,-0.034667
1.595907,0.504886,0.784846,-9.580862,0.030391,-0.078954,-0.035125
1.604216,0.479761,0.796810,-9.533005,0.030391,-0.078954,-0.035125
1.612767,0.504886,0.783649,-9.493524,0.031765,-0.086590,-0.034972
1.621911,0.521635,0.796810,-9.521041,0.034514,-0.092699,-0.035736
1.631067,0.509671,0.783649,-9.564112,0.033292,-0.088728,-0.030849
1.639322,0.528814,0.781257,-9.580862,0.031001,-0.082620,-0.026878
1.647672,0.502493,0.746561,-9.516255,0.032987,-0.087812,-0.027336
1.656077,0.502493,0.746561,-9.516255,0.041692,-0.105680,-0.030696
1.664320,0.473779,0.741775,-9.538987,0.041692,-0.105680,-0.030696
1.672895,0.471386,0.763310,-9.553344,0.034361,-0.097128,-0.025656
1.680537,0.473779,0.781257,-9.509077,0.033598,-0.099418,-0.024587
1.688148,0.489332,0.783649,-9.572487,0.039248,-0.105985,-0.029780
1.695619,0.489332,0.783649,-9.572487,0.037721,-0.098655,-0.031460
1.703072,0.502493,0.814756,-9.515059,0.037721,-0.098655,-0.031460
1.710701,0.483350,0.823131,-9.572487,0.036652,-0.098349,-0.035583
1.718346,0.491725,0.839881,-9.534202,0.034208,-0.093157,-0.034819
1.726053,0.491725,0.839881,-9.534202,0.032681,-0.090103,-0.031154
1.733653,0.509671,0.838684,-9.554541,0.032681,-0.090103,-0.031154
1.741161,0.502493,0.832702,-9.543773,0.030543,-0.086437,-0.027336
1.748746,0.503689,0.802792,-9.522238,0.033903,-0.093615,-0.028405
1.756274,0.503689,0.802792,-9.522238,0.034361,-0.094990,-0.029474
1.763685,0.495314,0.792024,-9.547362,0.034361,-0.094990,-0.029474
1.771369,0.486939,0.760918,-9.572487,0.031460,-0.089797,-0.032223
1.780332,0.495314,0.776471,-9.559326,0.031918,-0.088117,-0.034056
1.788732,0.496511,0.794417,-9.517452,0.026114,-0.078191,-0.034514
1.796967,0.484547,0.795614,-9.568898,0.031612,-0.085979,-0.040775
1.805192,0.484547,0.795614,-9.568898,0.028253,-0.077122,-0.037263
1.813477,0.521635,0.814756,-9.568898,0.028253,-0.077122,-0.037263
1.821676,0.508475,0.805185,-9.530612,0.023518,-0.069180,-0.032834
1.830273,0.489332,0.813560,-9.521041,0.026725,-0.076205,-0.034056
1.838510,0.486939,0.781257,-9.555737,0.034972,-0.094531,-0.039554
1.846716,0.477368,0.788435,-9.562916,0.036499,-0.096364,-0.041539
1.855162,0.477368,0.788435,-9.562916,0.032376,-0.085979,-0.039554
1.863377,0.488136,0.782453,-9.525827,0.032376,-0.085979,-0.039554
1.871711,0.490529,0.783649,-9.515059,0.033903,-0.086896,-0.042761
1.880419,0.502493,0.793221,-9.527023,0.033598,-0.087354,-0.040928
1.889032,0.541974,0.814756,-9.564112,0.033445,-0.085216,-0.040775
1.897426,0.506082,0.790828,-9.519845,0.029474,-0.080023,-0.035888
1.905685,0.506082,0.790828,-9.519845,0.033750,-0.090103,-0.038179
1.914042,0.496511,0.783649,-9.512666,0.033750,-0.090103,-0.038637
1.922261,0.515653,0.795614,-9.565308,0.036041,-0.095906,-0.038637
1.930775,0.480957,0.782453,-9.536594,0.034361,-0.092699,-0.038179
1.939075,0.477368,0.775275,-9.518648,0.036652,-0.096364,-0.041081
1.947385,0.474975,0.760918,-9.537791,0.031460,-0.086896,-0.034514
1.955713,0.474975,0.760918,-9.537791,0.036346,-0.097738,-0.036499
1.963951,0.490529,0.781257,-9.538987,0.036346,-0.097738,-0.036957
1.972460,0.501296,0.778864,-9.504291,0.038332,-0.099724,-0.036957
1.980921,0.512064,0.789631,-9.544969,0.038637,-0.100640,-0.036499
1.989147,0.497707,0.790828,-9.516255,0.024587,-0.077885,-0.023671
1.997469,0.488136,0.786042,-9.548559,0.035888,-0.097433,-0.027947
2.005682,0.488136,0.786042,-9.548559,0.032834,-0.091477,-0.024893
2.013968,0.501296,0.805185,-9.544969,0.032834,-0.091477,-0.023366
2.022170,0.503689,0.787239,-9.498309,0.028405,-0.083994,-0.023366
2.030650,0.508475,0.798006,-9.542577,0.028405,-0.085674,-0.026114
2.039000,0.486939,0.789631,-9.523434,0.029169,-0.082772,-0.028863
2.047171,0.519243,0.795614,-9.538987,0.034361,-0.092393,-0.031154
2.055437,0.519243,0.795614,-9.538987,0.029169,-0.082161,-0.031307
2.063640,0.522832,0.807578,-9.591629,0.029169,-0.082161,-0.031307
2.071796,0.489332,0.806381,-9.507881,0.033598,-0.091172,-0.037263
2.080423,0.500100,0.802792,-9.535398,0.036957,-0.094379,-0.039554
2.088710,0.500100,0.793221,-9.550951,0.034056,-0.089797,-0.036194
2.097006,0.524028,0.802792,-9.580862,0.038332,-0.096975,-0.039859
2.105155,0.524028,0.802792,-9.580862,0.031460,-0.083994,-0.036957
2.113443,0.506082,0.802792,-9.537791,0.031460,-0.083994,-0.036957
2.121697,0.502493,0.815953,-9.548559,0.028711,-0.078496,-0.035277
2.130088,0.477368,0.784846,-9.534202,0.029474,-0.080481,-0.034972
2.138464,0.485743,0.769292,-9.517452,0.037721,-0.096517,-0.037415
2.146636,0.521635,0.778864,-9.558130,0.038790,-0.100182,-0.035888
2.154821,0.521635,0.778864,-9.558130,0.032681,-0.093310,-0.031154
2.163065,0.512064,0.766900,-9.578469,0.032681,-0.093310,-0.031154
2.171215,0.502493,0.782453,-9.549755,0.035583,-0.097891,-0.035277
2.181891,0.477368,0.780060,-9.523434,0.033292,-0.093462,-0.033750
2.190436,0.503689,0.808774,-9.516255,0.035430,-0.092241,-0.037110
2.198750,0.508475,0.806381,-9.564112,0.025809,-0.074984,-0.030391
2.207001,0.502493,0.814756,-9.507881,0.025656,-0.079412,-0.030543
2.215188,0.502493,0.814756,-9.507881,0.032070,-0.090713,-0.035736
2.223469,0.521635,0.829113,-9.544969,0.032070,-0.090713,-0.035736
2.231883,0.494118,0.809970,-9.531809,0.041233,-0.105832,-0.041386
2.240319,0.464208,0.805185,-9.504291,0.042455,-0.105527,-0.041539
2.248482,0.513260,0.778864,-9.515059,0.038179,-0.097128,-0.038332
2.256696,0.506082,0.777667,-9.544969,0.038637,-0.095906,-0.039554
2.264979,0.506082,0.777667,-9.544969,0.033139,-0.087201,-0.035277
2.273151,0.518046,0.782453,-9.577272,0.033139,-0.087201,-0.035277
2.281846,0.501296,0.775275,-9.542577,0.030085,-0.085063,-0.033445
2.290278,0.492921,0.768096,-9.554541,0.029322,-0.084299,-0.034819
2.298523,0.500100,0.783649,-9.576076,0.036041,-0.096822,-0.040164
2.306780,0.471386,0.790828,-9.525827,0.032223,-0.088423,-0.037110
2.314922,0.471386,0.790828,-9.525827,0.033445,-0.089339,-0.035277
2.323197,0.507278,0.805185,-9.515059,0.033445,-0.089339,-0.035277
2.331878,0.496511,0.806381,-9.538987,0.032529,-0.093615,-0.034361
2.340404,0.497707,0.802792,-9.538987,0.031001,-0.088728,-0.032376
2.348713,0.509671,0.776471,-9.553344,0.029169,-0.084147,-0.032529
2.356933,0.494118,0.796810,-9.538987,0.028253,-0.084452,-0.031765
2.365306,0.494118,0.796810,-9.552148,0.033903,-0.093768,-0.035277
2.373485,0.490529,0.764507,-9.552148,0.033903,-0.088423,-0.034208
2.382650,0.519243,0.788435,-9.555737,0.032681,-0.088423,-0.034208
2.391910,0.476172,0.763310,-9.299705,0.033598,-0.089950,-0.034667
2.401129,0.500100,0.878166,-9.672985,0.036194,-0.095906,-0.034208
2.410432,0.507278,0.738186,-9.414561,0.028100,-0.080787,-0.025351
2.419574,0.485743,0.850648,-9.527023,0.032376,-0.088881,-0.028711
2.428868,0.494118,0.845863,-9.757931,0.032529,-0.090866,-0.030543
2.438323,0.502493,0.788435,-9.377472,0.033292,-0.089797,-0.031154
2.448262,0.471386,0.782453,-9.485149,0.034361,-0.090866,-0.032529
2.457373,0.514457,0.760918,-9.663414,0.035888,-0.091019,-0.034819
2.466747,0.500100,0.863809,-9.738788,0.037568,-0.095448,-0.036499
2.476161,0.520439,0.868595,-9.751949,0.034819,-0.091477,-0.036652
2.484315,0.520439,0.868595,-9.751949,0.033903,-0.091019,-0.034514
2.491834,0.478565,0.778864,-9.498309,0.033903,-0.091019,-0.034514
2.499294,0.501296,0.781257,-9.536594,0.042455,-0.103847,-0.038637
2.506831,0.492921,0.788435,-9.568898,0.033292,-0.088575,-0.032376
2.514275,0.492921,0.788435,-9.568898,0.030543,-0.083841,-0.030238
2.521667,0.497707,0.794417,-9.541380,0.030543,-0.083841,-0.030238
2.529172,0.486939,0.780060,-9.548559,0.034361,-0.093004,-0.034819
2.536816,0.503689,0.790828,-9.567701,0.033139,-0.090408,-0.032834
2.544292,0.503689,0.790828,-9.567701,0.031307,-0.088881,-0.032223
2.552008,0.508475,0.817149,-9.601201,0.031307,-0.088881,-0.032223
2.559464,0.492921,0.802792,-9.527023,0.029016,-0.084147,-0.030696
2.567008,0.476172,0.808774,-9.533005,0.036652,-0.097433,-0.036041
2.574455,0.476172,0.808774,-9.533005,0.036805,-0.098197,-0.035277
2.583083,0.497707,0.809970,-9.547362,0.036805,-0.098197,-0.031001
2.591509,0.492921,0.815953,-9.543773,0.029169,-0.083689,-0.031001
2.599741,0.516850,0.792024,-9.562916,0.029780,-0.083230,-0.032987
2.608016,0.495314,0.801596,-9.564112,0.026878,-0.078038,-0.032223
2.616298,0.477368,0.777667,-9.555737,0.032376,-0.087354,-0.035736
2.626175,0.503689,0.798006,-9.570094,0.038026,-0.095906,-0.038790
2.635101,0.503689,0.789631,-9.534202,0.038485,-0.097280,-0.038485
2.643410,0.490529,0.789631,-9.534202,0.036805,-0.095295,-0.038179
2.652382,0.507278,0.786042,-9.553344,0.036805,-0.095295,-0.038179
2.660573,0.514457,0.789631,-9.529416,0.037721,-0.098655,-0.039859
2.668885,0.502493,0.793221,-9.559326,0.032681,-0.087812,-0.036957
2.677116,0.496511,0.801596,-9.525827,0.024740,-0.073915,-0.030849
2.685619,0.510868,0.818345,-9.560523,0.035277,-0.093768,-0.038637
2.694028,0.510868,0.818345,-9.560523,0.028100,-0.082009,-0.034361
2.702504,0.490529,0.796810,-9.535398,0.028100,-0.082009,-0.034361
2.710824,0.488136,0.787239,-9.560523,0.032070,-0.088728,-0.034972
2.719107,0.508475,0.787239,-9.536594,0.033750,-0.090408,-0.033139
2.727312,0.495314,0.788435,-9.573683,0.040012,-0.101862,-0.035888
2.736420,0.500100,0.781257,-9.550951,0.038485,-0.102320,-0.035583
2.744739,0.500100,0.781257,-9.594022,0.031154,-0.090713,-0.032529
2.753058,0.496511,0.787239,-9.594022,0.031154,-0.097280,-0.040164
2.761292,0.496511,0.824327,-9.552148,0.036346,-0.097280,-0.040164
2.769956,0.485743,0.812363,-9.534202,0.027336,-0.079260,-0.033903
2.780252,0.501296,0.808774,-9.529416,0.027031,-0.077427,-0.032376
2.789612,0.515653,0.829113,-9.552148,0.032987,-0.086437,-0.035736
2.798790,0.515653,0.821935,-9.561719,0.034361,-0.091172,-0.038179
2.807312,0.480957,0.789631,-9.543773,0.029780,-0.083230,-0.034667
2.815716,0.479761,0.789631,-9.558130,0.039401,-0.099266,-0.037874
2.824039,0.479761,0.789631,-9.558130,0.035125,-0.090103,-0.032834
2.832283,0.512064,0.777667,-9.535398,0.035125,-0.090103,-0.032834
2.840788,0.516850,0.789631,-9.534202,0.033445,-0.090408,-0.033750
2.848984,0.478565,0.766900,-9.515059,0.034819,-0.093157,-0.036805
2.857339,0.488136,0.783649,-9.586844,0.034514,-0.093615,-0.036652
2.866327,0.491725,0.780060,-9.535398,0.035125,-0.093004,-0.036652
2.874923,0.491725,0.812363,-9.535398,0.040012,-0.100029,-0.039248
2.883535,0.504886,0.812363,-9.535398,0.033598,-0.091630,-0.035277
2.892027,0.520439,0.815953,-9.572487,0.033598,-0.091630,-0.035277
2.899950,0.485743,0.829113,-9.559326,0.033445,-0.091783,-0.032681
2.907650,0.461815,0.796810,-9.550951,0.037110,-0.097891,-0.034208
2.915330,0.512064,0.795614,-9.552148,0.041844,-0.102473,-0.033445
2.922851,0.512064,0.795614,-9.552148,0.041844,-0.102473,-0.026725
2.930306,0.503689,0.783649,-9.513863,0.031307,-0.086590,-0.026725
2.938178,0.479761,0.774078,-9.534202,0.035430,-0.093921,-0.027642
2.945723,0.490529,0.771685,-9.546166,0.035888,-0.096211,-0.031154
2.953324,0.490529,0.771685,-9.546166,0.031765,-0.089644,-0.031307
2.960948,0.483350,0.778864,-9.562916,0.031765,-0.089644,-0.031307
2.968385,0.490529,0.835095,-9.546166,0.031307,-0.087965,-0.033292
2.975909,0.509671,0.820738,-9.542577,0.027184,-0.076511,-0.032070
2.984037,0.509671,0.820738,-9.542577,0.031154,-0.087048,-0.035583
2.992070,0.528814,0.819542,-9.576076,0.031154,-0.087048,-0.035583
3.000348,0.545564,0.826720,-9.533005,0.031307,-0.085368,-0.037263
3.008170,0.502493,0.817149,-9.567701,0.032529,-0.089034,-0.039401
3.015666,0.479761,0.796810,-9.562916,0.031918,-0.087659,-0.038637
3.023269,0.479761,0.796810,-9.562916,0.032987,-0.089034,-0.035888
3.030685,0.491725,0.759721,-9.528220,0.032987,-0.089034,-0.035888
3.038271,0.489332,0.763310,-9.522238,0.037874,-0.097891,-0.036194
3.045921,0.504886,0.754936,-9.525827,0.036041,-0.094684,-0.034667
3.053359,0.504886,0.754936,-9.525827,0.031001,-0.091172,-0.030696
3.061008,0.485743,0.747757,-9.522238,0.031001,-0.091172,-0.030696
3.068469,0.464208,0.762114,-9.535398,0.039859,-0.103847,-0.038179
3.075951,0.451047,0.786042,-9.561719,0.040928,-0.105222,-0.041997
3.083994,0.451047,0.786042,-9.561719,0.032070,-0.087659,-0.033445
3.091937,0.474975,0.814756,-9.553344,0.032070,-0.087659,-0.033445
3.099550,0.520439,0.830309,-9.544969,0.031918,-0.085827,-0.030085
3.107094,0.518046,0.839881,-9.555737,0.033445,-0.090713,-0.032070
3.114638,0.492921,0.812363,-9.507881,0.035888,-0.097891,-0.036499
3.122210,0.492921,0.812363,-9.507881,0.035888,-0.097891,-0.036499
3.129726,0.460618,0.805185,-9.555737,0.036194,-0.094226,-0.035888
3.137168,0.477368,0.808774,-9.576076,0.032834,-0.090103,-0.036041
3.145609,0.486939,0.790828,-9.535398,0.032070,-0.084452,-0.037568
3.153126,0.486939,0.790828,-9.535398,0.029932,-0.080329,-0.035125
3.160987,0.526421,0.795614,-9.559326,0.029932,-0.080329,-0.035125
3.168713,0.504886,0.772882,-9.541380,0.025962,-0.075289,-0.035125
3.176339,0.509671,0.781257,-9.528220,0.031918,-0.088881,-0.037721
3.184220,0.509671,0.765703,-9.559326,0.033598,-0.092699,-0.036041
3.193293,0.483350,0.765703,-9.559326,0.037721,-0.098655,-0.035736
3.202183,0.513260,0.769292,-9.605986,0.037721,-0.091630,-0.033445
3.210560,0.498904,0.775275,-9.516255,0.034972,-0.091630,-0.033445
3.218775,0.534796,0.787239,-9.523434,0.031001,-0.087965,-0.032070
3.227111,0.484547,0.803988,-9.513863,0.034514,-0.093921,-0.034667
3.235328,0.527617,0.796810,-9.566505,0.034361,-0.093004,-0.034667
3.243877,0.527617,0.796810,-9.540184,0.031001,-0.086132,-0.033750
3.252323,0.512064,0.814756,-9.540184,0.031001,-0.091477,-0.037110
3.260530,0.494118,0.841077,-9.559326,0.032987,-0.091477,-0.037110
3.268897,0.491725,0.820738,-9.558130,0.031001,-0.086590,-0.037415
3.277103,0.502493,0.811167,-9.576076,0.032376,-0.086437,-0.036194
3.285382,0.464208,0.763310,-9.561719,0.039401,-0.097433,-0.039706
3.294031,0.464208,0.775275,-9.553344,0.037721,-0.098349,-0.036652
3.302341,0.490529,0.775275,-9.553344,0.034056,-0.093768,-0.032834
3.310905,0.516850,0.770489,-9.554541,0.034056,-0.093768,-0.032834
3.319122,0.485743,0.794417,-9.534202,0.034208,-0.091630,-0.035430
3.327444,0.484547,0.794417,-9.538987,0.035583,-0.095295,-0.038332
3.335722,0.500100,0.806381,-9.556933,0.040164,-0.100793,-0.043524
3.344435,0.521635,0.821935,-9.536594,0.032070,-0.083841,-0.038026
3.352892,0.521635,0.821935,-9.536594,0.038943,-0.097738,-0.039859
3.361182,0.495314,0.786042,-9.517452,0.038943,-0.097738,-0.039859
3.371007,0.513260,0.787239,-9.562916,0.038179,-0.098655,-0.035583
3.379364,0.526421,0.775275,-9.537791,0.034361,-0.095142,-0.031612
3.387392,0.502493,0.758525,-9.561719,0.033445,-0.093157,-0.030238
3.395243,0.464208,0.765703,-9.552148,0.035736,-0.097280,-0.031307
3.402719,0.464208,0.765703,-9.552148,0.038485,-0.101098,-0.035277
3.410350,0.492921,0.759721,-9.522238,0.038485,-0.101098,-0.035277
3.417919,0.484547,0.812363,-9.560523,0.032834,-0.093004,-0.032987
3.425401,0.495314,0.817149,-9.548559,0.033445,-0.093004,-0.038332
3.433246,0.495314,0.817149,-9.548559,0.038332,-0.095295,-0.043066
3.441225,0.492921,0.830309,-9.552148,0.038332,-0.095295,-0.043066
3.448936,0.485743,0.825524,-9.544969,0.032834,-0.086590,-0.040012
3.456679,0.513260,0.812363,-9.547362,0.032987,-0.086590,-0.034514
3.464198,0.504886,0.786042,-9.509077,0.037263,-0.094990,-0.034361
3.471869,0.504886,0.786042,-9.509077,0.037263,-0.094990,-0.033292
3.479683,0.522832,0.783649,-9.527023,0.037110,-0.098502,-0.033292
3.487319,0.501296,0.763310,-9.573683,0.032223,-0.092546,-0.031307
3.495431,0.468993,0.747757,-9.554541,0.034056,-0.091935,-0.035125
3.502964,0.468993,0.747757,-9.554541,0.039859,-0.100182,-0.039859
3.510647,0.491725,0.782453,-9.571290,0.039859,-0.100182,-0.039859
3.518229,0.504886,0.799203,-9.505488,0.033903,-0.091783,-0.034361
3.525869,0.518046,0.835095,-9.554541,0.032987,-0.089950,-0.034972
3.533600,0.518046,0.849452,-9.547362,0.027184,-0.080329,-0.031001
3.541113,0.506082,0.849452,-9.547362,0.027184,-0.080329,-0.031001
3.548822,0.501296,0.821935,-9.546166,0.032070,-0.086285,-0.034208
3.556448,0.514457,0.807578,-9.549755,0.028100,-0.079565,-0.029780
3.564237,0.484547,0.789631,-9.538987,0.034208,-0.091019,-0.030696
3.571762,0.484547,0.789631,-9.538987,0.034208,-0.091019,-0.033139
3.579329,0.504886,0.778864,-9.565308,0.036041,-0.096059,-0.033139
3.586821,0.496511,0.758525,-9.546166,0.029169,-0.085979,-0.030696
3.594541,0.464208,0.733400,-9.547362,0.034056,-0.093004,-0.036194
3.602095,0.464208,0.733400,-9.547362,0.034056,-0.094226,-0.037721
3.609657,0.458226,0.776471,-9.601201,0.034056,-0.094226,-0.037721
3.617284,0.478565,0.799203,-9.533005,0.037110,-0.093462,-0.039095
3.625718,0.480957,0.831506,-9.546166,0.041997,-0.103236,-0.044746
3.633363,0.480957,0.831506,-9.534202,0.030238,-0.083383,-0.034514
3.640869,0.492921,0.850648,-9.534202,0.030238,-0.083383,-0.034514
3.648579,0.520439,0.811167,-9.558130,0.033445,-0.086896,-0.034514
3.656136,0.478565,0.802792,-9.578469,0.038943,-0.097433,-0.037568
3.663608,0.478565,0.784846,-9.589237,0.041539,-0.102625,-0.037874
3.671034,0.494118,0.784846,-9.589237,0.041539,-0.102625,-0.037874
3.678744,0.495314,0.777667,-9.553344,0.032834,-0.089644,-0.036194
3.686541,0.463011,0.748953,-9.544969,0.040164,-0.102167,-0.041997
3.694990,0.480957,0.764507,-9.527023,0.038485,-0.098502,-0.041539
3.703330,0.480957,0.778864,-9.528220,0.035888,-0.093921,-0.036805
3.711488,0.504886,0.778864,-9.528220,0.035888,-0.081245,-0.032223
3.719836,0.519243,0.802792,-9.583255,0.029322,-0.081245,-0.032223
3.728088,0.507278,0.789631,-9.523434,0.030543,-0.087965,-0.037721
3.736330,0.497707,0.800399,-9.533005,0.029474,-0.087506,-0.034972
3.745225,0.494118,0.786042,-9.535398,0.032834,-0.089186,-0.033139
3.753816,0.514457,0.818345,-9.550951,0.032681,-0.090561,-0.031460
3.762217,0.514457,0.818345,-9.550951,0.024893,-0.076816,-0.029780
3.770572,0.472582,0.800399,-9.582058,0.024893,-0.076816,-0.029780
3.778831,0.480957,0.787239,-9.574880,0.031154,-0.086743,-0.034819
3.787071,0.492921,0.786042,-9.566505,0.024740,-0.073304,-0.028863
3.795341,0.498904,0.777667,-9.528220,0.031460,-0.084452,-0.032681
3.804568,0.504886,0.803988,-9.584451,0.038790,-0.099571,-0.037110
3.812820,0.504886,0.803988,-9.525827,0.026420,-0.079107,-0.027947
3.821176,0.508475,0.788435,-9.525827,0.026420,-0.091630,-0.034208
3.829415,0.490529,0.807578,-9.577272,0.033445,-0.091630,-0.034208
3.837673,0.472582,0.817149,-9.562916,0.034514,-0.092699,-0.035277
3.846073,0.501296,0.812363,-9.594022,0.034056,-0.089950,-0.036041
3.854486,0.531207,0.794417,-9.561719,0.034514,-0.089034,-0.036652
3.862850,0.531207,0.794417,-9.554541,0.036652,-0.093157,-0.037874
3.871098,0.506082,0.807578,-9.554541,0.036652,-0.091172,-0.034056
3.879402,0.521635,0.790828,-9.535398,0.034972,-0.091172,-0.034056
3.887817,0.491725,0.794417,-9.547362,0.033139,-0.089644,-0.033139
3.896123,0.495314,0.787239,-9.535398,0.032987,-0.093004,-0.033903
3.904604,0.480957,0.780060,-9.531809,0.034667,-0.093310,-0.035583
3.912811,0.480957,0.780060,-9.543773,0.032070,-0.087354,-0.034819
3.921189,0.507278,0.787239,-9.543773,0.032070,-0.086285,-0.033598
3.929497,0.532403,0.806381,-9.602397,0.031307,-0.086285,-0.033598
3.937686,0.496511,0.798006,-9.592826,0.031154,-0.087354,-0.032987
3.946143,0.500100,0.802792,-9.529416,0.034972,-0.094837,-0.034056
3.954627,0.516850,0.802792,-9.503095,0.032987,-0.092393,-0.033445
3.963021,0.516850,0.793221,-9.533005,0.031918,-0.088270,-0.034208
3.971283,0.494118,0.793221,-9.533005,0.036041,-0.095142,-0.037568
3.979730,0.508475,0.815953,-9.510273,0.036041,-0.095142,-0.037568
3.988296,0.510868,0.819542,-9.570094,0.034514,-0.090561,-0.040623
3.996691,0.500100,0.802792,-9.554541,0.031307,-0.082009,-0.037874
4.005218,0.508475,0.794417,-9.586844,0.032376,-0.086437,-0.039859
4.013452,0.524028,0.775275,-9.547362,0.028863,-0.079565,-0.032681
4.021742,0.524028,0.775275,-9.547362,0.034056,-0.089950,-0.034514
4.030075,0.497707,0.776471,-9.521041,0.034056,-0.089950,-0.034514
4.038673,0.486939,0.768096,-9.561719,0.035125,-0.096364,-0.036652
4.047131,0.522832,0.760918,-9.561719,0.034361,-0.094684,-0.035277
4.055587,0.492921,0.788435,-9.559326,0.033445,-0.092393,-0.034819
4.063905,0.490529,0.771685,-9.552148,0.029169,-0.082620,-0.032376
4.072249,0.490529,0.771685,-9.552148,0.032529,-0.085063,-0.035430
4.080481,0.491725,0.799203,-9.571290,0.032529,-0.085063,-0.037721
4.088790,0.501296,0.806381,-9.531809,0.033445,-0.090866,-0.037721
4.097006,0.504886,0.799203,-9.543773,0.033445,-0.092699,-0.036194
4.105607,0.532403,0.820738,-9.594022,0.032834,-0.090408,-0.034361
4.113881,0.492921,0.807578,-9.495916,0.036957,-0.094531,-0.037415
4.122185,0.492921,0.807578,-9.533005,0.033292,-0.088270,-0.035583
4.130496,0.518046,0.794417,-9.533005,0.033292,-0.088270,-0.032070
4.138689,0.484547,0.792024,-9.558130,0.029474,-0.080329,-0.032070
4.147544,0.515653,0.757328,-9.552148,0.028711,-0.077274,-0.031918
4.156029,0.525225,0.765703,-9.577272,0.034361,-0.084910,-0.036346
4.164284,0.504886,0.796810,-9.560523,0.040623,-0.100182,-0.041081
4.172613,0.504886,0.778864,-9.589237,0.026878,-0.077733,-0.032529
4.180901,0.507278,0.778864,-9.589237,0.031460,-0.086437,-0.033750
4.189317,0.460618,0.806381,-9.541380,0.031460,-0.086437,-0.033750
4.197587,0.500100,0.800399,-9.533005,0.032834,-0.091477,-0.033445
4.206086,0.484547,0.806381,-9.525827,0.036499,-0.098349,-0.034056
4.214387,0.472582,0.796810,-9.556933,0.035277,-0.093004,-0.034819
4.222585,0.472582,0.820738,-9.534202,0.035583,-0.091477,-0.037110
4.230909,0.472582,0.820738,-9.534202,0.035888,-0.095753,-0.039095
4.239230,0.486939,0.802792,-9.564112,0.035888,-0.095753,-0.039095
4.247645,0.502493,0.809970,-9.535398,0.037110,-0.097128,-0.038637
4.256103,0.508475,0.801596,-9.534202,0.033445,-0.089034,-0.034819
4.264342,0.502493,0.813560,-9.523434,0.036041,-0.092699,-0.037110
4.272783,0.491725,0.793221,-9.512666,0.036957,-0.096669,-0.036346
4.281321,0.491725,0.793221,-9.512666,0.037110,-0.095448,-0.034667
4.289599,0.484547,0.762114,-9.542577,0.037110,-0.095448,-0.034667
4.297938,0.490529,0.772882,-9.568898,0.040164,-0.100182,-0.036499
4.306468,0.498904,0.792024,-9.556933,0.036194,-0.097891,-0.035430
4.314823,0.503689,0.789631,-9.535398,0.035430,-0.096669,-0.036041
4.323049,0.488136,0.815953,-9.549755,0.028558,-0.082925,-0.034514
4.331311,0.488136,0.815953,-9.549755,0.029474,-0.079412,-0.034972
4.339581,0.495314,0.829113,-9.559326,0.029474,-0.079412,-0.034972
4.347808,0.504886,0.842274,-9.538987,0.034056,-0.087201,-0.036041
4.356608,0.526421,0.819542,-9.550951,0.035430,-0.088881,-0.033598
4.365171,0.497707,0.764507,-9.537791,0.036346,-0.094226,-0.031765
4.373621,0.502493,0.731007,-9.544969,0.041692,-0.103236,-0.030543
4.381949,0.502493,0.731007,-9.499506,0.040317,-0.104611,-0.028558
4.390315,0.498904,0.720240,-9.499506,0.040317,-0.114537,-0.028863
4.398731,0.480957,0.736989,-9.510273,0.044440,-0.114537,-0.028863
4.407273,0.479761,0.769292,-9.565308,0.040928,-0.109498,-0.031154
4.416228,0.480957,0.809970,-9.566505,0.036957,-0.099876,-0.036346
4.424440,0.495314,0.849452,-9.566505,0.032681,-0.087965,-0.040470
4.432808,0.522832,0.876969,-9.570094,0.032834,-0.085979,-0.043830
4.441139,0.522832,0.876969,-9.570094,0.028558,-0.072998,-0.041539
4.449332,0.537189,0.878166,-9.528220,0.028558,-0.072998,-0.040470
4.458281,0.508475,0.851845,-9.555737,0.032223,-0.079565,-0.040470
4.466514,0.507278,0.811167,-9.529416,0.037110,-0.088423,-0.040775
4.475106,0.496511,0.760918,-9.534202,0.030391,-0.085063,-0.034056
4.483398,0.461815,0.741775,-9.589237,0.037415,-0.100335,-0.035430
4.491557,0.461815,0.741775,-9.589237,0.035125,-0.096975,-0.032681
4.499157,0.477368,0.734597,-9.538987,0.035125,-0.096975,-0.032681
4.506843,0.465404,0.717847,-9.513863,0.034667,-0.094531,-0.033292
4.514347,0.494118,0.759721,-9.566505,0.032070,-0.089186,-0.033903
4.521887,0.494118,0.759721,-9.570094,0.032834,-0.089339,-0.039248
4.529468,0.492921,0.801596,-9.570094,0.032834,-0.089339,-0.039248
4.536994,0.501296,0.824327,-9.528220,0.037568,-0.092699,-0.040623
4.545058,0.472582,0.845863,-9.512666,0.039706,-0.098502,-0.038637
4.552627,0.525225,0.838684,-9.574880,0.039095,-0.097738,-0.036652
4.560313,0.525225,0.838684,-9.574880,0.039095,-0.096975,-0.036652
4.567789,0.506082,0.815953,-9.559326,0.039401,-0.096975,-0.036652
4.575226,0.498904,0.771685,-9.505488,0.040317,-0.099571,-0.038790
4.583118,0.492921,0.762114,-9.554541,0.038179,-0.094684,-0.033903
4.592976,0.503689,0.774078,-9.565308,0.036652,-0.092699,-0.035430
4.601353,0.503689,0.774078,-9.565308,0.025198,-0.073457,-0.027184
4.609815,0.503689,0.728614,-9.527023,0.025198,-0.078954,-0.027336
4.618863,0.528814,0.759721,-9.588040,0.026878,-0.078954,-0.027336
4.627366,0.538385,0.771685,-9.542577,0.033139,-0.091935,-0.033903
4.635571,0.500100,0.792024,-9.548559,0.037263,-0.097128,-0.035430
4.643980,0.477368,0.795614,-9.529416,0.033903,-0.093921,-0.032834
4.652345,0.501296,0.831506,-9.536594,0.035125,-0.093004,-0.032987
4.660834,0.501296,0.831506,-9.536594,0.029322,-0.083230,-0.029474
4.669065,0.501296,0.825524,-9.549755,0.029322,-0.083230,-0.029474
4.677624,0.502493,0.817149,-9.544969,0.028405,-0.081245,-0.029627
4.686113,0.496511,0.808774,-9.528220,0.030085,-0.086132,-0.033139
4.694366,0.500100,0.812363,-9.543773,0.029780,-0.083078,-0.031460
4.702684,0.485743,0.794417,-9.541380,0.034972,-0.093615,-0.036652
4.711127,0.485743,0.794417,-9.541380,0.036957,-0.094226,-0.039554
4.719410,0.485743,0.788435,-9.504291,0.036957,-0.094226,-0.042302
4.727763,0.484547,0.776471,-9.549755,0.039248,-0.095448,-0.042302
4.736019,0.467797,0.783649,-9.542577,0.028100,-0.078649,-0.037110
4.744421,0.508475,0.778864,-9.566505,0.035736,-0.090255,-0.040012
4.752627,0.495314,0.763310,-9.530612,0.034514,-0.089034,-0.037110
4.761110,0.495314,0.763310,-9.554541,0.036957,-0.094684,-0.036346
4.769421,0.516850,0.772882,-9.554541,0.036957,-0.094684,-0.028405
4.777598,0.488136,0.774078,-9.590433,0.030696,-0.085368,-0.028405
4.785959,0.527617,0.776471,-9.559326,0.036194,-0.094226,-0.031154
4.794183,0.527617,0.784846,-9.559326,0.039401,-0.100487,-0.034972
4.802438,0.513260,0.786042,-9.528220,0.034361,-0.089644,-0.033598
4.810885,0.513260,0.786042,-9.528220,0.031612,-0.083078,-0.034972
4.819120,0.515653,0.813560,-9.590433,0.031612,-0.083078,-0.033139
4.827450,0.500100,0.799203,-9.595219,0.025656,-0.072846,-0.033139
4.835647,0.516850,0.814756,-9.536594,0.033750,-0.089186,-0.039248
4.844223,0.498904,0.803988,-9.541380,0.032376,-0.087048,-0.037721
4.852577,0.484547,0.798006,-9.565308,0.031154,-0.083230,-0.036194
4.860952,0.484547,0.798006,-9.521041,0.032529,-0.088117,-0.037568
4.869289,0.506082,0.799203,-9.521041,0.032529,-0.088117,-0.031307
4.877548,0.504886,0.778864,-9.536594,0.025809,-0.078343,-0.031307
4.886324,0.485743,0.784846,-9.582058,0.032223,-0.089034,-0.035583
4.894858,0.509671,0.769292,-9.549755,0.030849,-0.084910,-0.032834
4.903056,0.489332,0.796810,-9.537791,0.036346,-0.091477,-0.036499
4.911790,0.488136,0.780060,-9.531809,0.031460,-0.087506,-0.034667
4.920139,0.488136,0.780060,-9.531809,0.035583,-0.093921,-0.034972
4.928507,0.516850,0.795614,-9.550951,0.035583,-0.093921,-0.034972
4.936794,0.482154,0.825524,-9.525827,0.032834,-0.089186,-0.032987
4.945654,0.483350,0.820738,-9.574880,0.032376,-0.087506,-0.033903
4.954016,0.494118,0.817149,-9.524630,0.029627,-0.080940,-0.031460
4.962434,0.531207,0.806381,-9.567701,0.035125,-0.092852,-0.034972
4.970895,0.531207,0.806381,-9.522238,0.036805,-0.094531,-0.036499
4.979147,0.497707,0.772882,-9.522238,0.036805,-0.094531,-0.036499
4.987396,0.506082,0.774078,-9.529416,0.041539,-0.101251,-0.036499
4.995712,0.491725,0.756132,-9.558130,0.031460,-0.087965,-0.029169
5.003925,0.486939,0.786042,-9.559326,0.032070,-0.090103,-0.029169
5.012388,0.465404,0.782453,-9.538987,0.034361,-0.094379,-0.031612
5.020721,0.465404,0.782453,-9.552148,0.037568,-0.098349,-0.036346
5.029046,0.519243,0.805185,-9.552148,0.037568,-0.098349,-0.031154
5.037380,0.491725,0.808774,-9.498309,0.030085,-0.083841,-0.031154
5.045577,0.486939,0.835095,-9.550951,0.031460,-0.084605,-0.033445
5.053933,0.522832,0.823131,-9.573683,0.035888,-0.093004,-0.037721
5.062387,0.522832,0.825524,-9.572487,0.032223,-0.086743,-0.033750
5.070708,0.522832,0.825524,-9.560523,0.029627,-0.082772,-0.032681
5.079043,0.519243,0.799203,-9.560523,0.029627,-0.088881,-0.033903
5.087237,0.491725,0.780060,-9.536594,0.031765,-0.088881,-0.033903
5.095635,0.502493,0.766900,-9.588040,0.035125,-0.093615,-0.037263
5.103879,0.483350,0.778864,-9.583255,0.028100,-0.080329,-0.034208
5.112540,0.497707,0.757328,-9.522238,0.030696,-0.082620,-0.038332
5.120826,0.497707,0.802792,-9.564112,0.031307,-0.085216,-0.040164
5.129079,0.507278,0.802792,-9.564112,0.031307,-0.081551,-0.034667
5.137455,0.518046,0.792024,-9.580862,0.028558,-0.081551,-0.034667
5.145650,0.524028,0.823131,-9.574880,0.030391,-0.083994,-0.034972
5.153981,0.494118,0.829113,-9.528220,0.026420,-0.078191,-0.027947
5.162577,0.518046,0.802792,-9.535398,0.032529,-0.092546,-0.028711
5.170979,0.518046,0.807578,-9.566505,0.035888,-0.097433,-0.029474
5.179306,0.504886,0.807578,-9.566505,0.034972,-0.095753,-0.030238
5.187574,0.473779,0.772882,-9.544969,0.034972,-0.095753,-0.030238
5.196051,0.500100,0.807578,-9.586844,0.034208,-0.094226,-0.031612
5.204289,0.490529,0.811167,-9.518648,0.030696,-0.088575,-0.034361
5.212723,0.490529,0.827917,-9.533005,0.032223,-0.088881,-0.039401
5.221035,0.486939,0.821935,-9.561719,0.034667,-0.088881,-0.040623
5.229243,0.486939,0.821935,-9.561719,0.036194,-0.094073,-0.040928
5.237558,0.516850,0.807578,-9.554541,0.036194,-0.094073,-0.040928
5.245833,0.501296,0.790828,-9.547362,0.032070,-0.085063,-0.036041
5.254071,0.490529,0.784846,-9.523434,0.033292,-0.089950,-0.034514
5.262602,0.496511,0.777667,-9.584451,0.033292,-0.095295,-0.034208
5.270881,0.496511,0.753739,-9.543773,0.039095,-0.101404,-0.035583
5.279302,0.473779,0.753739,-9.543773,0.035583,-0.095600,-0.034514
5.287926,0.504886,0.759721,-9.553344,0.035583,-0.095600,-0.034514
5.296265,0.498904,0.784846,-9.546166,0.031154,-0.087965,-0.034056
5.304589,0.497707,0.799203,-9.555737,0.032376,-0.089492,-0.034514
5.312961,0.514457,0.833899,-9.574880,0.029474,-0.083536,-0.032070
5.321392,0.501296,0.838684,-9.510273,0.030391,-0.085979,-0.033445
5.329661,0.501296,0.838684,-9.510273,0.034667,-0.093768,-0.034819
5.338023,0.486939,0.824327,-9.541380,0.034667,-0.093768,-0.034819
5.346935,0.515653,0.809970,-9.554541,0.034208,-0.089492,-0.033903
5.355230,0.501296,0.799203,-9.550951,0.029016,-0.083536,-0.031612
5.363660,0.496511,0.780060,-9.560523,0.034514,-0.091630,-0.035277
5.371983,0.488136,0.768096,-9.560523,0.035125,-0.091477,-0.036194
5.380319,0.488136,0.768096,-9.553344,0.033292,-0.089950,-0.035125
5.388519,0.484547,0.770489,-9.553344,0.033292,-0.088270,-0.031765
5.396837,0.494118,0.775275,-9.560523,0.033292,-0.088270,-0.031765
5.405165,0.497707,0.770489,-9.511470,0.032681,-0.090408,-0.030391
5.413607,0.478565,0.794417,-9.530612,0.038332,-0.100029,-0.032987
5.422010,0.518046,0.819542,-9.533005,0.038790,-0.099724,-0.034208
5.430268,0.518046,0.819542,-9.578469,0.029474,-0.083841,-0.027489
5.438510,0.485743,0.839881,-9.578469,0.029474,-0.080176,-0.028863
5.446769,0.491725,0.838684,-9.516255,0.028405,-0.080176,-0.028863
5.454928,0.509671,0.808774,-9.507881,0.031154,-0.082161,-0.031612
5.463334,0.479761,0.788435,-9.538987,0.034208,-0.089339,-0.036194
5.471647,0.503689,0.775275,-9.505488,0.034514,-0.093004,-0.035125
5.480104,0.503689,0.775275,-9.554541,0.035125,-0.093157,-0.034972
5.488655,0.527617,0.765703,-9.554541,0.035125,-0.095142,-0.034972
5.496907,0.472582,0.736989,-9.522238,0.036499,-0.095142,-0.034972
5.505247,0.495314,0.750150,-9.537791,0.033598,-0.091935,-0.032529
5.513525,0.509671,0.770489,-9.547362,0.037568,-0.100182,-0.033292
5.521960,0.501296,0.794417,-9.590433,0.032529,-0.093310,-0.031765
5.530237,0.501296,0.812363,-9.541380,0.034667,-0.094684,-0.034819
5.538455,0.476172,0.812363,-9.541380,0.034667,-0.094226,-0.035583
5.546761,0.491725,0.827917,-9.573683,0.034056,-0.094226,-0.035583
5.555027,0.504886,0.854238,-9.550951,0.026878,-0.078343,-0.032376
5.563458,0.502493,0.811167,-9.510273,0.032070,-0.084910,-0.038026
5.571792,0.512064,0.837488,-9.522238,0.040012,-0.097738,-0.045509
5.580078,0.512064,0.807578,-9.554541,0.041081,-0.098960,-0.047647
5.588434,0.539581,0.807578,-9.554541,0.041081,-0.081551,-0.038790
5.596669,0.457029,0.771685,-9.554541,0.031918,-0.081551,-0.038790
5.605022,0.479761,0.751346,-9.538987,0.035736,-0.091477,-0.036346
5.613352,0.486939,0.740579,-9.538987,0.031918,-0.088423,-0.032681
5.622646,0.509671,0.754936,-9.533005,0.034056,-0.092546,-0.035125
5.631096,0.471386,0.769292,-9.564112,0.033292,-0.086590,-0.035125
5.639543,0.471386,0.769292,-9.564112,0.036041,-0.093615,-0.038179
5.647985,0.479761,0.789631,-9.556933,0.036041,-0.093615,-0.036805
5.656229,0.486939,0.805185,-9.535398,0.034361,-0.094531,-0.036805
5.664525,0.500100,0.825524,-9.525827,0.036499,-0.097280,-0.035430
5.672886,0.509671,0.829113,-9.558130,0.028711,-0.083841,-0.030543
5.681057,0.478565,0.830309,-9.524630,0.035430,-0.095448,-0.035583
5.689415,0.478565,0.830309,-9.524630,0.033139,-0.089034,-0.032681
5.697643,0.464208,0.803988,-9.524630,0.033139,-0.089034,-0.036041
5.705976,0.489332,0.768096,-9.497113,0.040775,-0.102320,-0.036041
5.714410,0.506082,0.795614,-9.548559,0.038485,-0.100335,-0.037263
5.722815,0.480957,0.799203,-9.552148,0.031612,-0.087354,-0.035888
5.731176,0.496511,0.790828,-9.608379,0.031307,-0.086743,-0.035736
5.739416,0.496511,0.790828,-9.608379,0.032681,-0.085979,-0.035888
5.748291,0.522832,0.782453,-9.540184,0.027794,-0.078191,-0.033445
5.756568,0.501296,0.812363,-9.535398,0.027794,-0.078191,-0.033445
5.764856,0.518046,0.811167,-9.615558,0.029322,-0.081398,-0.031918
5.773369,0.512064,0.802792,-9.511470,0.029322,-0.082467,-0.031307
5.781724,0.504886,0.809970,-9.521041,0.027947,-0.079260,-0.030391
5.790462,0.504886,0.786042,-9.570094,0.031154,-0.084299,-0.033292
5.798837,0.504886,0.786042,-9.570094,0.040928,-0.102473,-0.042608
5.807065,0.480957,0.770489,-9.577272,0.040928,-0.102473,-0.042608
5.815481,0.500100,0.764507,-9.507881,0.043066,-0.105069,-0.041539
5.823905,0.510868,0.758525,-9.549755,0.039095,-0.098807,-0.039248
5.832341,0.498904,0.768096,-9.512666,0.034361,-0.091019,-0.033903
5.840532,0.503689,0.776471,-9.528220,0.034208,-0.093004,-0.030849
5.848764,0.503689,0.776471,-9.528220,0.041233,-0.104458,-0.033598
5.857106,0.482154,0.783649,-9.537791,0.041233,-0.104458,-0.033598
5.865327,0.483350,0.823131,-9.536594,0.037721,-0.099113,-0.032529
5.873816,0.494118,0.831506,-9.591629,0.033598,-0.093768,-0.034361
5.882085,0.508475,0.844666,-9.523434,0.028253,-0.082314,-0.034514
5.890391,0.484547,0.825524,-9.531809,0.031918,-0.085979,-0.039859
5.898696,0.484547,0.825524,-9.531809,0.035583,-0.090866,-0.041386
5.906876,0.483350,0.811167,-9.528220,0.035583,-0.090866,-0.041386
5.915956,0.495314,0.764507,-9.541380,0.039248,-0.096822,-0.039859
5.924443,0.522832,0.772882,-9.564112,0.040012,-0.100793,-0.037263
5.932793,0.490529,0.748953,-9.574880,0.030849,-0.087048,-0.030849
5.941586,0.478565,0.748953,-9.577272,0.027184,-0.082009,-0.029474
5.949984,0.502493,0.766900,-9.548559,0.031612,-0.089492,-0.033292
5.958266,0.502493,0.766900,-9.548559,0.023213,-0.076511,-0.029169
5.966507,0.513260,0.801596,-9.549755,0.023213,-0.076511,-0.029169
5.974990,0.520439,0.830309,-9.568898,0.025962,-0.074984,-0.034361
5.983212,0.516850,0.829113,-9.503095,0.032376,-0.084758,-0.039859
5.991436,0.515653,0.825524,-9.556933,0.035125,-0.088728,-0.038943
5.999775,0.503689,0.832702,-9.596415,0.033750,-0.087506,-0.034361
6.008192,0.503689,0.832702,-9.596415,0.032681,-0.090255,-0.031460
6.016854,0.489332,0.777667,-9.571290,0.032681,-0.090255,-0.031460
6.025325,0.495314,0.776471,-9.579665,0.045357,-0.108887,-0.036499
6.033749,0.494118,0.754936,-9.521041,0.037263,-0.097891,-0.031460
6.042359,0.485743,0.772882,-9.576076,0.040164,-0.101556,-0.037263
6.050567,0.496511,0.789631,-9.565308,0.035125,-0.092088,-0.036499
6.058870,0.496511,0.789631,-9.565308,0.022755,-0.069180,-0.029780
6.067102,0.525225,0.809970,-9.596415,0.022755,-0.069180,-0.035277
6.075546,0.520439,0.820738,-9.576076,0.029780,-0.080176,-0.035277
6.083810,0.506082,0.813560,-9.510273,0.035277,-0.090713,-0.038026
6.092034,0.485743,0.813560,-9.506684,0.038179,-0.099571,-0.039095
6.100379,0.531207,0.782453,-9.544969,0.037721,-0.099113,-0.034361
6.108600,0.531207,0.782453,-9.544969,0.030238,-0.088117,-0.028405
6.116910,0.501296,0.774078,-9.517452,0.030238,-0.088117,-0.028253
6.125524,0.482154,0.788435,-9.578469,0.030391,-0.085674,-0.028253
6.133790,0.472582,0.795614,-9.567701,0.034361,-0.091935,-0.031154
6.142157,0.501296,0.796810,-9.552148,0.033903,-0.091783,-0.033139
6.151031,0.512064,0.813560,-9.523434,0.031765,-0.083841,-0.035277
6.159364,0.512064,0.820738,-9.541380,0.036652,-0.092088,-0.040470
6.167584,0.501296,0.820738,-9.541380,0.037263,-0.093768,-0.039401
6.176083,0.531207,0.818345,-9.540184,0.037263,-0.093768,-0.039401
6.184398,0.506082,0.788435,-9.556933,0.032529,-0.086132,-0.036194
6.192589,0.482154,0.813560,-9.564112,0.038179,-0.097433,-0.039859
6.200922,0.480957,0.775275,-9.523434,0.036499,-0.095906,-0.037874
6.209153,0.480957,0.777667,-9.535398,0.037568,-0.097280,-0.035277
6.217372,0.494118,0.777667,-9.535398,0.037568,-0.090103,-0.032070
6.225853,0.478565,0.772882,-9.572487,0.033750,-0.090103,-0.032070
6.234293,0.486939,0.789631,-9.530612,0.042608,-0.105527,-0.035583
6.242618,0.503689,0.774078,-9.571290,0.038485,-0.099724,-0.032987
6.250840,0.507278,0.784846,-9.565308,0.033445,-0.092088,-0.032529
6.259097,0.507278,0.786042,-9.556933,0.034208,-0.093768,-0.036499
6.267323,0.489332,0.786042,-9.556933,0.034208,-0.096517,-0.038179
6.275727,0.507278,0.807578,-9.565308,0.036041,-0.096517,-0.038179
6.284111,0.501296,0.802792,-9.555737,0.036346,-0.094379,-0.038790
6.292353,0.514457,0.813560,-9.536594,0.035583,-0.093768,-0.037263
6.300612,0.486939,0.806381,-9.533005,0.033598,-0.090103,-0.036194
6.308921,0.486939,0.811167,-9.529416,0.028711,-0.081092,-0.032987
6.318112,0.502493,0.811167,-9.529416,0.027489,-0.080634,-0.034056
6.327144,0.502493,0.813560,-9.531809,0.027489,-0.083536,-0.035277
6.335623,0.504886,0.811167,-9.536594,0.028863,-0.083536,-0.035277
6.344171,0.515653,0.794417,-9.608379,0.028253,-0.081398,-0.033903
6.352625,0.498904,0.777667,-9.550951,0.032529,-0.087506,-0.036957
6.361526,0.498904,0.776471,-9.588040,0.037415,-0.092852,-0.039554
6.370055,0.466600,0.754936,-9.541380,0.037110,-0.094684,-0.037263
6.379182,0.470190,0.774078,-9.570094,0.041539,-0.107818,-0.036194
6.388013,0.470190,0.774078,-9.570094,0.040012,-0.101862,-0.033750
6.396273,0.525225,0.788435,-9.582058,0.040012,-0.101862,-0.033750
6.404783,0.488136,0.790828,-9.578469,0.026114,-0.081245,-0.025045
6.411715,0.510868,0.788435,-9.534202,0.034972,-0.097891,-0.032529
6.418026,0.510868,0.788435,-9.534202,0.035736,-0.097586,-0.035583
6.424674,0.502493,0.811167,-9.538987,0.035736,-0.097586,-0.035583
6.431080,0.501296,0.833899,-9.548559,0.034514,-0.090255,-0.037110
6.437424,0.501296,0.833899,-9.548559,0.034514,-0.090713,-0.038485
6.443830,0.478565,0.831506,-9.522238,0.035125,-0.090713,-0.038485
6.450230,0.525225,0.829113,-9.536594,0.035888,-0.090255,-0.040164
6.456535,0.525225,0.829113,-9.536594,0.035888,-0.090255,-0.040164
6.462865,0.522832,0.808774,-9.497113,0.033445,-0.085979,-0.036805
6.469268,0.497707,0.777667,-9.544969,0.036652,-0.092393,-0.034972
6.476250,0.497707,0.777667,-9.544969,0.036652,-0.092393,-0.034972
6.482646,0.491725,0.746561,-9.540184,0.038332,-0.100029,-0.032681
6.489186,0.472582,0.720240,-9.555737,0.039401,-0.103694,-0.031307
6.495514,0.472582,0.720240,-9.555737,0.039401,-0.103694,-0.031307
6.501812,0.470190,0.745364,-9.558130,0.034514,-0.095448,-0.025504
6.508943,0.478565,0.792024,-9.595219,0.034972,-0.097280,-0.030085
6.517224,0.478565,0.792024,-9.595219,0.027794,-0.082772,-0.028711
6.526354,0.463011,0.803988,-9.536594,0.027794,-0.082772,-0.032681
6.534793,0.482154,0.844666,-9.554541,0.028405,-0.081245,-0.032681
6.543098,0.482154,0.860220,-9.553344,0.031001,-0.083536,-0.039706
6.551537,0.494118,0.874577,-9.506684,0.029627,-0.078191,-0.040470
6.559880,0.533599,0.825524,-9.535398,0.031612,-0.081092,-0.041081
6.568283,0.533599,0.825524,-9.506684,0.033903,-0.088117,-0.041539
6.576905,0.521635,0.795614,-9.506684,0.029016,-0.081703,-0.034208
6.585251,0.496511,0.769292,-9.588040,0.029016,-0.081703,-0.034208
6.593663,0.495314,0.753739,-9.543773,0.033903,-0.089492,-0.037568
6.601887,0.483350,0.720240,-9.541380,0.034514,-0.093462,-0.037568
6.610331,0.466600,0.711865,-9.555737,0.034056,-0.092852,-0.033292
6.618729,0.502493,0.751346,-9.527023,0.036499,-0.100335,-0.036041
6.629376,0.506082,0.806381,-9.556933,0.028405,-0.083689,-0.030543
6.637776,0.506082,0.806381,-9.556933,0.033903,-0.089492,-0.037263
6.646044,0.519243,0.830309,-9.560523,0.033903,-0.089492,-0.037415
6.654510,0.515653,0.831506,-9.604790,0.033598,-0.088728,-0.037415
6.662984,0.491725,0.859023,-9.580862,0.035583,-0.091324,-0.035125
6.671331,0.525225,0.850648,-9.573683,0.037263,-0.097433,-0.033139
6.680290,0.519243,0.807578,-9.550951,0.033139,-0.091172,-0.029627
6.688874,0.494118,0.792024,-9.568898,0.038790,-0.099571,-0.033139
6.697300,0.494118,0.792024,-9.568898,0.038943,-0.103084,-0.035736
6.705489,0.473779,0.748953,-9.512666,0.038943,-0.103084,-0.035736
6.713394,0.473779,0.759721,-9.568898,0.040317,-0.104916,-0.038637
6.720889,0.465404,0.759721,-9.567701,0.038026,-0.097280,-0.041692
6.728548,0.486939,0.787239,-9.580862,0.035277,-0.090255,-0.045509
6.736722,0.486939,0.787239,-9.580862,0.035277,-0.085063,-0.040928
6.744175,0.479761,0.806381,-9.570094,0.032529,-0.085063,-0.040928
6.751729,0.489332,0.831506,-9.515059,0.036805,-0.091019,-0.039859
6.759295,0.491725,0.823131,-9.548559,0.042150,-0.103542,-0.040164
6.766745,0.491725,0.823131,-9.548559,0.042150,-0.104305,-0.034667
6.774338,0.480957,0.794417,-9.556933,0.039248,-0.104305,-0.034667
6.782394,0.500100,0.795614,-9.576076,0.041844,-0.105222,-0.032223
6.789961,0.483350,0.768096,-9.548559,0.035430,-0.097433,-0.027794
6.798207,0.483350,0.762114,-9.540184,0.035277,-0.097433,-0.030849
6.805734,0.468993,0.762114,-9.540184,0.035277,-0.097433,-0.030849
6.813408,0.478565,0.763310,-9.540184,0.041997,-0.104916,-0.037721
6.820977,0.504886,0.817149,-9.552148,0.033598,-0.087659,-0.033598
6.829082,0.498904,0.820738,-9.559326,0.033292,-0.088728,-0.033292
6.837328,0.498904,0.820738,-9.559326,0.033445,-0.088423,-0.037568
6.844891,0.508475,0.833899,-9.522238,0.033445,-0.088423,-0.037568
6.852338,0.514457,0.844666,-9.537791,0.038790,-0.095295,-0.041844
6.860010,0.484547,0.841077,-9.541380,0.033139,-0.085368,-0.037415
6.867728,0.484547,0.841077,-9.550951,0.033292,-0.089492,-0.035888
6.875370,0.496511,0.790828,-9.550951,0.033292,-0.089492,-0.035888
6.883465,0.494118,0.753739,-9.554541,0.034819,-0.092852,-0.037874
6.890958,0.501296,0.759721,-9.535398,0.040928,-0.102625,-0.039248
6.898953,0.483350,0.739382,-9.535398,0.035430,-0.094837,-0.035736
6.906525,0.483350,0.739382,-9.535398,0.029169,-0.082772,-0.033598
6.914595,0.504886,0.760918,-9.561719,0.029169,-0.082772,-0.033598
6.922904,0.515653,0.787239,-9.573683,0.026573,-0.081856,-0.030696
6.930570,0.495314,0.795614,-9.576076,0.033903,-0.088270,-0.036194
6.938290,0.519243,0.805185,-9.537791,0.035736,-0.091935,-0.038026
6.945855,0.519243,0.805185,-9.537791,0.035736,-0.091935,-0.028711
6.953378,0.504886,0.790828,-9.547362,0.026267,-0.076358,-0.028711
6.961067,0.514457,0.805185,-9.542577,0.037721,-0.095600,-0.037263
6.968610,0.503689,0.787239,-9.564112,0.037874,-0.100335,-0.036041
6.976050,0.503689,0.787239,-9.564112,0.031612,-0.090255,-0.030238
6.984430,0.497707,0.787239,-9.573683,0.031612,-0.090255,-0.030238
6.992147,0.471386,0.788435,-9.576076,0.034361,-0.097280,-0.031918
6.999825,0.452243,0.803988,-9.531809,0.037415,-0.098502,-0.035736
7.007415,0.452243,0.803988,-9.505488,0.036957,-0.097128,-0.038637
7.014965,0.490529,0.793221,-9.505488,0.036957,-0.097128,-0.038637
7.022596,0.506082,0.835095,-9.589237,0.030696,-0.084299,-0.037263
7.031014,0.504886,0.807578,-9.538987,0.025045,-0.073915,-0.036041
7.038689,0.515653,0.827917,-9.552148,0.032529,-0.084299,-0.040470
7.046269,0.515653,0.827917,-9.552148,0.032834,-0.087965,-0.038637
7.053726,0.528814,0.806381,-9.535398,0.032834,-0.087965,-0.038637
7.061318,0.510868,0.802792,-9.578469,0.031001,-0.081245,-0.036041
7.068891,0.491725,0.769292,-9.550951,0.029627,-0.081398,-0.035736
7.076345,0.491725,0.769292,-9.550951,0.036652,-0.094990,-0.039401
7.084149,0.482154,0.763310,-9.549755,0.036652,-0.094990,-0.039401
7.091643,0.489332,0.740579,-9.573683,0.033445,-0.089492,-0.036194
7.099131,0.495314,0.753739,-9.556933,0.034972,-0.091783,-0.034208
7.106759,0.495314,0.753739,-9.556933,0.037263,-0.096364,-0.036194
7.114257,0.486939,0.803988,-9.556933,0.037263,-0.096364,-0.036194
7.122401,0.496511,0.793221,-9.537791,0.033903,-0.089034,-0.035888
7.130511,0.468993,0.817149,-9.537791,0.034819,-0.093157,-0.035430
7.138216,0.510868,0.836291,-9.523434,0.037874,-0.096364,-0.036652
7.145911,0.510868,0.836291,-9.523434,0.037874,-0.091019,-0.034514
7.153394,0.507278,0.803988,-9.531809,0.033445,-0.091019,-0.034514
7.160889,0.543171,0.826720,-9.553344,0.037110,-0.094837,-0.035888
7.169080,0.474975,0.799203,-9.547362,0.028863,-0.075289,-0.031307
7.176603,0.474975,0.799203,-9.547362,0.034819,-0.086896,-0.035277
7.185034,0.497707,0.788435,-9.522238,0.034819,-0.086896,-0.035277
7.192561,0.501296,0.780060,-9.534202,0.038026,-0.096364,-0.037110
7.200102,0.483350,0.760918,-9.583255,0.035430,-0.092546,-0.037263
7.208335,0.509671,0.753739,-9.553344,0.029169,-0.079412,-0.027184
7.215845,0.509671,0.753739,-9.553344,0.029169,-0.089950,-0.028711
7.223371,0.516850,0.769292,-9.573683,0.033139,-0.089950,-0.028711
7.231388,0.501296,0.777667,-9.580862,0.033292,-0.094684,-0.029169
7.239080,0.474975,0.800399,-9.565308,0.034056,-0.094990,-0.031154
7.247369,0.474975,0.808774,-9.523434,0.032834,-0.091783,-0.029474
7.254869,0.483350,0.808774,-9.523434,0.032834,-0.091783,-0.029474
7.262347,0.482154,0.819542,-9.550951,0.038943,-0.101862,-0.033750
7.270045,0.516850,0.843470,-9.527023,0.037263,-0.096669,-0.033750
7.277503,0.516850,0.841077,-9.525827,0.034056,-0.088575,-0.035125
7.286927,0.506082,0.841077,-9.525827,0.037110,-0.093157,-0.041386
7.294457,0.500100,0.831506,-9.556933,0.037110,-0.093157,-0.041386
7.301969,0.501296,0.823131,-9.573683,0.032987,-0.087201,-0.038790
7.309703,0.514457,0.784846,-9.559326,0.032223,-0.089186,-0.037721
7.317224,0.514457,0.774078,-9.528220,0.029932,-0.080634,-0.035277
7.324732,0.496511,0.774078,-9.528220,0.029932,-0.080634,-0.035277
7.332536,0.495314,0.772882,-9.542577,0.035736,-0.091019,-0.039248
7.340223,0.495314,0.744168,-9.584451,0.035430,-0.093462,-0.037874
7.347954,0.474975,0.736989,-9.519845,0.030238,-0.085674,-0.031154
7.355530,0.474975,0.736989,-9.519845,0.030238,-0.091019,-0.028558
7.363050,0.488136,0.771685,-9.531809,0.032834,-0.091019,-0.028558
7.370672,0.490529,0.786042,-9.525827,0.031765,-0.087506,-0.027031
7.378199,0.491725,0.826720,-9.541380,0.032070,-0.089644,-0.031765
7.385951,0.491725,0.826720,-9.541380,0.034514,-0.090713,-0.036346
7.393597,0.522832,0.837488,-9.549755,0.034514,-0.090713,-0.036346
7.401073,0.510868,0.853041,-9.533005,0.030391,-0.081092,-0.037568
7.408607,0.508475,0.836291,-9.555737,0.030391,-0.080787,-0.037568
7.417047,0.508475,0.746561,-9.390632,0.032070,-0.083841,-0.035736
7.426188,0.513260,0.746561,-9.390632,0.036041,-0.090866,-0.038026
7.435667,0.476172,0.717847,-9.455239,0.032987,-0.091477,-0.037110
7.445090,0.489332,0.782453,-9.500702,0.030696,-0.085827,-0.033139
7.454372,0.518046,0.764507,-9.591629,0.030696,-0.085827,-0.030849
7.463544,0.489332,0.661615,-9.558130,0.026725,-0.075900,-0.030849
7.472819,0.507278,0.746561,-9.729217,0.034819,-0.089644,-0.035430
7.482043,0.516850,0.752543,-9.530612,0.033903,-0.091783,-0.033292
7.491547,0.519243,0.751346,-9.500702,0.035430,-0.094379,-0.029932
7.500799,0.483350,0.843470,-9.582058,0.038332,-0.104611,-0.032376
7.509951,0.501296,0.766900,-9.393025,0.037568,-0.100793,-0.027947
7.518637,0.504886,0.805185,-9.562916,0.034361,-0.096517,-0.026114
7.526839,0.504886,0.835095,-9.511470,0.034667,-0.096669,-0.028711
7.535295,0.486939,0.835095,-9.511470,0.034208,-0.093921,-0.031460
7.543645,0.479761,0.847059,-9.570094,0.034208,-0.093921,-0.031460
7.551934,0.501296,0.841077,-9.534202,0.030696,-0.086132,-0.032987
7.560336,0.494118,0.838684,-9.538987,0.038790,-0.096669,-0.044440
7.568560,0.484547,0.824327,-9.541380,0.034361,-0.083994,-0.044593
7.576916,0.484547,0.819542,-9.564112,0.026420,-0.072082,-0.041539
7.587482,0.502493,0.812363,-9.583255,0.033139,-0.084910,-0.042761
7.595987,0.502493,0.812363,-9.583255,0.041692,-0.100182,-0.044899
7.604239,0.476172,0.741775,-9.492327,0.041692,-0.100182,-0.044899
7.612684,0.486939,0.732204,-9.555737,0.042455,-0.103389,-0.043066
7.621639,0.513260,0.727418,-9.548559,0.036194,-0.094073,-0.039706
7.629854,0.524028,0.732204,-9.558130,0.033292,-0.090103,-0.035736
7.637836,0.513260,0.752543,-9.571290,0.033903,-0.095295,-0.032987
7.645445,0.513260,0.752543,-9.571290,0.029780,-0.084910,-0.025351
7.652918,0.476172,0.741775,-9.547362,0.029780,-0.084910,-0.025351
7.660759,0.502493,0.776471,-9.531809,0.032070,-0.091783,-0.023976
7.668195,0.468993,0.820738,-9.570094,0.037568,-0.098807,-0.029322
7.676273,0.468993,0.820738,-9.570094,0.039095,-0.101709,-0.033598
7.684313,0.488136,0.835095,-9.513863,0.039095,-0.101709,-0.033598
7.692143,0.490529,0.868595,-9.542577,0.033292,-0.092241,-0.032223
7.699843,0.496511,0.873380,-9.528220,0.030696,-0.083689,-0.034972
7.707321,0.491725,0.859023,-9.560523,0.035125,-0.092699,-0.041386
7.715388,0.491725,0.859023,-9.560523,0.031001,-0.083383,-0.038943
7.722982,0.486939,0.826720,-9.510273,0.031001,-0.083383,-0.038943
7.730461,0.515653,0.792024,-9.547362,0.031460,-0.083841,-0.043371
7.738334,0.468993,0.758525,-9.546166,0.035583,-0.089797,-0.042761
7.745995,0.468993,0.758525,-9.546166,0.032987,-0.088575,-0.037721
7.753506,0.482154,0.756132,-9.528220,0.032987,-0.088575,-0.037721
7.761125,0.498904,0.734597,-9.589237,0.040928,-0.102931,-0.039859
7.768617,0.502493,0.729811,-9.534202,0.038332,-0.100182,-0.036652
7.776100,0.502493,0.729811,-9.534202,0.034361,-0.091477,-0.031612
7.783716,0.520439,0.754936,-9.558130,0.034361,-0.091477,-0.031612
7.791548,0.502493,0.754936,-9.537791,0.029932,-0.085368,-0.026725
7.799218,0.495314,0.788435,-9.513863,0.030543,-0.086743,-0.028863
7.806802,0.496511,0.817149,-9.537791,0.028558,-0.083689,-0.029322
7.814584,0.496511,0.817149,-9.537791,0.028558,-0.096059,-0.035583
7.823075,0.486939,0.826720,-9.549755,0.036346,-0.096059,-0.035583
7.831341,0.551546,0.817149,-9.559326,0.037568,-0.097586,-0.036957
7.839776,0.500100,0.831506,-9.529416,0.032834,-0.088728,-0.031460
7.848306,0.525225,0.826720,-9.572487,0.029780,-0.084910,-0.030543
7.856559,0.510868,0.820738,-9.602397,0.028863,-0.078038,-0.029169
7.864978,0.510868,0.820738,-9.602397,0.031460,-0.082772,-0.031154
7.873365,0.500100,0.806381,-9.546166,0.031460,-0.082772,-0.031154
7.882348,0.496511,0.776471,-9.550951,0.034819,-0.094379,-0.036957
7.890982,0.524028,0.787239,-9.604790,0.027489,-0.078954,-0.035736
7.899407,0.492921,0.784846,-9.584451,0.025045,-0.072540,-0.035430
7.907876,0.510868,0.792024,-9.544969,0.036346,-0.091172,-0.041386
7.916273,0.510868,0.796810,-9.560523,0.037110,-0.094531,-0.040928
7.924024,0.526421,0.796810,-9.560523,0.037110,-0.094531,-0.040928
7.931641,0.516850,0.798006,-9.571290,0.034819,-0.090255,-0.037415
7.939362,0.513260,0.793221,-9.559326,0.031612,-0.085063,-0.034208
7.947660,0.526421,0.772882,-9.540184,0.036346,-0.092852,-0.034819
7.955160,0.526421,0.772882,-9.540184,0.036194,-0.094990,-0.032070
7.962709,0.516850,0.760918,-9.564112,0.036194,-0.094990,-0.032070
7.970335,0.489332,0.771685,-9.544969,0.034819,-0.096211,-0.030085
7.977818,0.494118,0.781257,-9.567701,0.038790,-0.101862,-0.032834
7.985482,0.494118,0.781257,-9.567701,0.036041,-0.096517,-0.032223
7.993513,0.501296,0.782453,-9.535398,0.036041,-0.096517,-0.032223
8.001075,0.503689,0.790828,-9.533005,0.032070,-0.090713,-0.032529
8.008974,0.507278,0.847059,-9.550951,0.035125,-0.092088,-0.037874
8.016500,0.497707,0.843470,-9.541380,0.029627,-0.080634,-0.035430
8.024173,0.497707,0.843470,-9.541380,0.029627,-0.080634,-0.036805
8.031743,0.508475,0.837488,-9.565308,0.031154,-0.084910,-0.036805
8.039871,0.512064,0.831506,-9.517452,0.034819,-0.091019,-0.040623
8.048189,0.521635,0.789631,-9.522238,0.031612,-0.083536,-0.035583
8.055679,0.521635,0.789631,-9.535398,0.033445,-0.088423,-0.035888
8.063817,0.518046,0.781257,-9.535398,0.033445,-0.084299,-0.033445
8.072138,0.531207,0.742971,-9.566505,0.029627,-0.084299,-0.033445
8.079668,0.506082,0.736989,-9.536594,0.034361,-0.090103,-0.034667
8.087330,0.514457,0.744168,-9.574880,0.035125,-0.094531,-0.035430
8.095616,0.514457,0.744168,-9.552148,0.029016,-0.084910,-0.029474
8.103114,0.506082,0.736989,-9.552148,0.029016,-0.084910,-0.029474
8.111288,0.498904,0.787239,-9.566505,0.035736,-0.096364,-0.031154
8.118757,0.510868,0.798006,-9.540184,0.027489,-0.082620,-0.025962
8.126296,0.506082,0.825524,-9.517452,0.029016,-0.085827,-0.027947
8.133870,0.506082,0.825524,-9.517452,0.029016,-0.085827,-0.029780
8.141956,0.497707,0.855434,-9.538987,0.031918,-0.089339,-0.029780
8.150341,0.474975,0.856630,-9.522238,0.028100,-0.082161,-0.030391
8.157860,0.519243,0.853041,-9.549755,0.026725,-0.076358,-0.032529
8.165367,0.519243,0.853041,-9.549755,0.025351,-0.073762,-0.032223
8.173010,0.508475,0.827917,-9.538987,0.025351,-0.073762,-0.032223
8.180828,0.502493,0.793221,-9.547362,0.034819,-0.091019,-0.037721
8.188968,0.476172,0.751346,-9.553344,0.033292,-0.091324,-0.035888
8.196696,0.495314,0.758525,-9.533005,0.034667,-0.089950,-0.033750
8.204176,0.495314,0.758525,-9.533005,0.034667,-0.097280,-0.034056
8.211794,0.518046,0.753739,-9.540184,0.037568,-0.097280,-0.034056
8.219370,0.488136,0.750150,-9.594022,0.035736,-0.097586,-0.034361
8.227578,0.504886,0.782453,-9.529416,0.035125,-0.091019,-0.034056
8.235925,0.489332,0.793221,-9.565308,0.035430,-0.092852,-0.037415
8.244345,0.489332,0.793221,-9.565308,0.033445,-0.090408,-0.035888
8.252778,0.501296,0.826720,-9.525827,0.033445,-0.090408,-0.035888
8.261023,0.535992,0.835095,-9.519845,0.033445,-0.089950,-0.038943
8.269308,0.509671,0.814756,-9.510273,0.032834,-0.087659,-0.036041
8.277584,0.489332,0.813560,-9.512666,0.038026,-0.097128,-0.038485
8.285768,0.496511,0.783649,-9.544969,0.033598,-0.090561,-0.032223
8.294386,0.496511,0.783649,-9.544969,0.036041,-0.095142,-0.034208
8.302757,0.500100,0.759721,-9.548559,0.036041,-0.095142,-0.034208
8.311064,0.466600,0.763310,-9.571290,0.033139,-0.091019,-0.030238
8.319402,0.492921,0.768096,-9.562916,0.036499,-0.098807,-0.031918
8.327653,0.512064,0.795614,-9.542577,0.035430,-0.095753,-0.033139
8.336004,0.496511,0.812363,-9.582058,0.032529,-0.086437,-0.031765
8.344347,0.496511,0.812363,-9.582058,0.034819,-0.095142,-0.033750
8.352772,0.524028,0.813560,-9.553344,0.034819,-0.095142,-0.033750
8.361060,0.491725,0.831506,-9.527023,0.035277,-0.092699,-0.035277
8.369244,0.509671,0.837488,-9.529416,0.032834,-0.088728,-0.035430
8.377604,0.510868,0.824327,-9.548559,0.033598,-0.091477,-0.039859
8.385869,0.497707,0.818345,-9.572487,0.028711,-0.079871,-0.036499
8.394287,0.497707,0.818345,-9.572487,0.032987,-0.088881,-0.040775
8.402636,0.507278,0.769292,-9.534202,0.032987,-0.088881,-0.040775
8.410878,0.492921,0.762114,-9.524630,0.040623,-0.100029,-0.045204
8.419250,0.480957,0.757328,-9.552148,0.035888,-0.091783,-0.038943
8.427466,0.514457,0.738186,-9.535398,0.028558,-0.081856,-0.031765
8.435747,0.510868,0.758525,-9.538987,0.031001,-0.087201,-0.033445
8.444141,0.510868,0.758525,-9.538987,0.028711,-0.086285,-0.030085
8.453133,0.501296,0.778864,-9.521041,0.028711,-0.086285,-0.032529
8.461478,0.521635,0.800399,-9.554541,0.032223,-0.091935,-0.032529
8.469781,0.522832,0.829113,-9.548559,0.027947,-0.078343,-0.026878
8.478122,0.543171,0.817149,-9.558130,0.033750,-0.087659,-0.030696
8.487918,0.512064,0.815953,-9.527023,0.028405,-0.078496,-0.025962
8.496456,0.478565,0.808774,-9.512666,0.041997,-0.103694,-0.035125
8.504847,0.478565,0.808774,-9.530612,0.049633,-0.118813,-0.040012
8.513085,0.498904,0.784846,-9.530612,0.049633,-0.118813,-0.033750
8.521488,0.458226,0.796810,-9.568898,0.038790,-0.102473,-0.033750
8.529776,0.498904,0.768096,-9.528220,0.031307,-0.091935,-0.028863
8.538097,0.490529,0.794417,-9.565308,0.036957,-0.099418,-0.032834
8.546586,0.528814,0.792024,-9.548559,0.036041,-0.092852,-0.033292
8.554934,0.528814,0.792024,-9.512666,0.038790,-0.096669,-0.038790
8.563316,0.484547,0.799203,-9.512666,0.038790,-0.086590,-0.034514
8.571608,0.479761,0.801596,-9.528220,0.032070,-0.086590,-0.034514
8.579969,0.495314,0.814756,-9.547362,0.029474,-0.083994,-0.032529
8.588253,0.502493,0.817149,-9.567701,0.038179,-0.096211,-0.038332
8.596738,0.485743,0.812363,-9.503095,0.031918,-0.087048,-0.035125
8.605189,0.485743,0.793221,-9.564112,0.036499,-0.093615,-0.036652
8.613457,0.494118,0.793221,-9.564112,0.037263,-0.092852,-0.040775
8.622627,0.513260,0.806381,-9.571290,0.037263,-0.092852,-0.039706
8.631606,0.490529,0.800399,-9.550951,0.033750,-0.089644,-0.039706
8.640147,0.486939,0.776471,-9.588040,0.031460,-0.084299,-0.040164
8.648758,0.502493,0.780060,-9.523434,0.038943,-0.095448,-0.043371
8.657065,0.509671,0.769292,-9.515059,0.035583,-0.087965,-0.038179
8.665445,0.496511,0.771685,-9.583255,0.041081,-0.101251,-0.038485
8.674003,0.496511,0.771685,-9.583255,0.039248,-0.101556,-0.036041
8.682436,0.503689,0.762114,-9.553344,0.039248,-0.101556,-0.036041
8.690752,0.491725,0.754936,-9.547362,0.035736,-0.097433,-0.028711
8.699882,0.495314,0.775275,-9.559326,0.033903,-0.095142,-0.028253
8.708311,0.495314,0.800399,-9.562916,0.035736,-0.092852,-0.031765
8.716592,0.488136,0.815953,-9.556933,0.028100,-0.081703,-0.031918
8.724958,0.488136,0.815953,-9.534202,0.033598,-0.089950,-0.039554
8.732465,0.497707,0.815953,-9.534202,0.033598,-0.089950,-0.039554
8.739934,0.512064,0.827917,-9.511470,0.033598,-0.088575,-0.041997
8.749041,0.515653,0.827917,-9.534202,0.035125,-0.086590,-0.042455
8.756688,0.498904,0.806381,-9.521041,0.041081,-0.097280,-0.044899
8.764818,0.498904,0.796810,-9.554541,0.041844,-0.100793,-0.043219
8.772352,0.448654,0.796810,-9.554541,0.041844,-0.100793,-0.043219
8.779853,0.498904,0.776471,-9.552148,0.036041,-0.097586,-0.039248
8.787575,0.500100,0.771685,-9.552148,0.034667,-0.095600,-0.036041
8.795056,0.489332,0.776471,-9.576076,0.032376,-0.087659,-0.036194
8.804060,0.489332,0.776471,-9.576076,0.030085,-0.081856,-0.036499
8.811750,0.494118,0.795614,-9.507881,0.030085,-0.081856,-0.036499
8.819226,0.498904,0.777667,-9.556933,0.030238,-0.082009,-0.035430
8.827005,0.490529,0.778864,-9.533005,0.037874,-0.096059,-0.039706
8.834525,0.490529,0.778864,-9.521041,0.037721,-0.093004,-0.032987
8.842059,0.534796,0.774078,-9.521041,0.037721,-0.093004,-0.028405
8.851567,0.510868,0.792024,-9.544969,0.037568,-0.096517,-0.028405
8.859188,0.476172,0.781257,-9.560523,0.036499,-0.098044,-0.027184
8.867081,0.495314,0.776471,-9.558130,0.041539,-0.106901,-0.030543
8.874582,0.495314,0.778864,-9.519845,0.043066,-0.110719,-0.036805
8.882038,0.482154,0.778864,-9.519845,0.043066,-0.110719,-0.036805
8.889682,0.512064,0.817149,-9.573683,0.036346,-0.096059,-0.036805
8.897143,0.490529,0.819542,-9.577272,0.032376,-0.083230,-0.036805
8.905095,0.502493,0.837488,-9.529416,0.033139,-0.082467,-0.040470
8.912709,0.502493,0.837488,-9.529416,0.033139,-0.082467,-0.040470
8.920158,0.513260,0.826720,-9.554541,0.033292,-0.084910,-0.040470
8.928431,0.513260,0.813560,-9.578469,0.033139,-0.086437,-0.036805
8.936675,0.489332,0.768096,-9.511470,0.042608,-0.104305,-0.039706
8.944911,0.508475,0.741775,-9.538987,0.040012,-0.103389,-0.035736
8.953415,0.508475,0.741775,-9.538987,0.040470,-0.105222,-0.036957
8.961803,0.483350,0.750150,-9.592826,0.040470,-0.105222,-0.036957
8.970241,0.461815,0.732204,-9.588040,0.037568,-0.098502,-0.032987
8.978491,0.494118,0.775275,-9.555737,0.038943,-0.100640,-0.033750
8.986730,0.488136,0.762114,-9.525827,0.034819,-0.092088,-0.034819
8.995000,0.502493,0.809970,-9.548559,0.030849,-0.083994,-0.035888
9.003335,0.502493,0.809970,-9.548559,0.037263,-0.093615,-0.040928
9.011891,0.507278,0.821935,-9.540184,0.037263,-0.093615,-0.040928
9.020151,0.516850,0.835095,-9.536594,0.037415,-0.095753,-0.039095
9.028491,0.467797,0.806381,-9.519845,0.037874,-0.094531,-0.041081
9.036754,0.473779,0.802792,-9.515059,0.040012,-0.096517,-0.040012
9.044961,0.498904,0.782453,-9.567701,0.032987,-0.087965,-0.032070
9.053281,0.498904,0.782453,-9.567701,0.036346,-0.093615,-0.033445
9.061884,0.507278,0.794417,-9.555737,0.036346,-0.093615,-0.033445
9.070225,0.525225,0.776471,-9.548559,0.033903,-0.090103,-0.034667
9.078519,0.507278,0.765703,-9.530612,0.034361,-0.091477,-0.037110
9.089441,0.497707,0.774078,-9.537791,0.035888,-0.094531,-0.040164
9.097899,0.497707,0.789631,-9.554541,0.035277,-0.092393,-0.039554
9.106241,0.503689,0.798006,-9.550951,0.030391,-0.083841,-0.034361
9.115014,0.502493,0.798006,-9.582058,0.035888,-0.096059,-0.034514
9.123260,0.502493,0.798006,-9.582058,0.034056,-0.093310,-0.032070
9.131549,0.494118,0.798006,-9.579665,0.034056,-0.093310,-0.032070
9.139924,0.508475,0.794417,-9.550951,0.035583,-0.097891,-0.032529
9.148178,0.494118,0.778864,-9.570094,0.029169,-0.087354,-0.028711
9.156494,0.495314,0.784846,-9.542577,0.035125,-0.092852,-0.032529
9.164990,0.483350,0.799203,-9.528220,0.026725,-0.079565,-0.029932
9.173327,0.483350,0.799203,-9.528220,0.027947,-0.084299,-0.032529
9.181539,0.486939,0.794417,-9.507881,0.027947,-0.084299,-0.032529
9.189868,0.524028,0.809970,-9.500702,0.037263,-0.094073,-0.039706
9.198143,0.484547,0.823131,-9.546166,0.034819,-0.090103,-0.039859
9.206369,0.485743,0.806381,-9.555737,0.032223,-0.086132,-0.039554
9.214877,0.472582,0.792024,-9.515059,0.027184,-0.078954,-0.035736
9.223145,0.472582,0.792024,-9.515059,0.036194,-0.094226,-0.038332
9.231403,0.486939,0.794417,-9.523434,0.036194,-0.094226,-0.038332
9.239691,0.495314,0.786042,-9.562916,0.033445,-0.089492,-0.032681
9.248592,0.508475,0.776471,-9.517452,0.029627,-0.082314,-0.029016
9.256919,0.526421,0.766900,-9.552148,0.034056,-0.089186,-0.033750
9.265603,0.515653,0.766900,-9.555737,0.031918,-0.087354,-0.032529
9.273936,0.515653,0.778864,-9.513863,0.032070,-0.087659,-0.031918
9.282238,0.498904,0.778864,-9.513863,0.032070,-0.091019,-0.035125
9.290440,0.494118,0.794417,-9.529416,0.034056,-0.091019,-0.035125
9.298797,0.506082,0.807578,-9.529416,0.037263,-0.097586,-0.038179
9.307006,0.508475,0.821935,-9.594022,0.042608,-0.104916,-0.041844
9.315440,0.507278,0.805185,-9.573683,0.035736,-0.092699,-0.034514
9.323732,0.507278,0.813560,-9.535398,0.033903,-0.087812,-0.031765
9.332058,0.497707,0.813560,-9.535398,0.033903,-0.079412,-0.027642
9.340390,0.494118,0.786042,-9.521041,0.028253,-0.079412,-0.027642
9.348602,0.494118,0.790828,-9.529416,0.038332,-0.101251,-0.035736
9.356868,0.484547,0.784846,-9.541380,0.039401,-0.101404,-0.037721
9.365408,0.455833,0.784846,-9.535398,0.041386,-0.102625,-0.040164
9.373790,0.455833,0.799203,-9.564112,0.038485,-0.095448,-0.040164
9.382383,0.520439,0.799203,-9.564112,0.028253,-0.077580,-0.033903
9.391066,0.522832,0.809970,-9.600004,0.028253,-0.077580,-0.033903
9.399462,0.484547,0.788435,-9.576076,0.030238,-0.083841,-0.033598
9.407672,0.518046,0.781257,-9.556933,0.040012,-0.099113,-0.036805
9.416106,0.477368,0.782453,-9.573683,0.037568,-0.097586,-0.033292
9.424544,0.495314,0.770489,-9.541380,0.032223,-0.092546,-0.027947
9.432777,0.495314,0.770489,-9.541380,0.032529,-0.093462,-0.028100
9.441115,0.483350,0.766900,-9.591629,0.032529,-0.093462,-0.028100
9.449350,0.509671,0.784846,-9.594022,0.036499,-0.100487,-0.034361
9.457592,0.474975,0.815953,-9.517452,0.029474,-0.085979,-0.031918
9.465950,0.512064,0.817149,-9.524630,0.030238,-0.083841,-0.035125
9.474449,0.509671,0.845863,-9.584451,0.034667,-0.091935,-0.040928
9.482836,0.509671,0.845863,-9.584451,0.033598,-0.087048,-0.040623
9.491051,0.549153,0.832702,-9.553344,0.033598,-0.087048,-0.040623
9.499314,0.507278,0.805185,-9.522238,0.031918,-0.085979,-0.036652
9.507698,0.512064,0.781257,-9.540184,0.033750,-0.090255,-0.039095
9.516023,0.498904,0.760918,-9.550951,0.027031,-0.079260,-0.032834
9.524628,0.468993,0.747757,-9.528220,0.035430,-0.095600,-0.039706
9.532889,0.468993,0.747757,-9.528220,0.035583,-0.095906,-0.041081
9.541279,0.506082,0.759721,-9.580862,0.035583,-0.095906,-0.036805
9.549620,0.518046,0.774078,-9.536594,0.030085,-0.083994,-0.036805
9.558608,0.491725,0.781257,-9.552148,0.037415,-0.093004,-0.040012
9.567085,0.507278,0.772882,-9.529416,0.039095,-0.099113,-0.040623
9.576679,0.503689,0.795614,-9.550951,0.037263,-0.098197,-0.036957
9.585402,0.485743,0.782453,-9.518648,0.040012,-0.103847,-0.037110
9.593638,0.497707,0.796810,-9.506684,0.040470,-0.105222,-0.036652
9.601940,0.497707,0.796810,-9.506684,0.032070,-0.090408,-0.032376
9.610312,0.477368,0.799203,-9.535398,0.032070,-0.090408,-0.032376
9.618604,0.483350,0.844666,-9.533005,0.031154,-0.086437,-0.035430
9.630520,0.494118,0.836291,-9.546166,0.027947,-0.078954,-0.035430
9.638527,0.538385,0.831506,-9.564112,0.029627,-0.078802,-0.039401
9.646142,0.575474,0.811167,-9.531809,0.026878,-0.074526,-0.040928
9.654245,0.479761,0.801596,-9.572487,0.030696,-0.082161,-0.046731
9.661723,0.479761,0.801596,-9.572487,0.030696,-0.089797,-0.042761
9.669375,0.461815,0.781257,-9.538987,0.036041,-0.089797,-0.042761
9.677217,0.482154,0.751346,-9.518648,0.036041,-0.093768,-0.036346
9.684808,0.492921,0.748953,-9.541380,0.035736,-0.092852,-0.030238
9.692371,0.492921,0.748953,-9.541380,0.037874,-0.101251,-0.030849
9.699913,0.506082,0.735793,-9.540184,0.037874,-0.101251,-0.030849
9.711226,0.485743,0.744168,-9.560523,0.039401,-0.101709,-0.029322
9.718781,0.476172,0.752543,-9.561719,0.036805,-0.098655,-0.029322
9.727104,0.484547,0.792024,-9.536594,0.037721,-0.099724,-0.029322
9.735251,0.525225,0.800399,-9.534202,0.037415,-0.099571,-0.027489
9.743510,0.507278,0.844666,-9.585647,0.033292,-0.093615,-0.024893
9.752069,0.507278,0.844666,-9.585647,0.033598,-0.093462,-0.027489
9.760321,0.498904,0.838684,-9.562916,0.033598,-0.093462,-0.027489
9.768661,0.514457,0.845863,-9.578469,0.027642,-0.082467,-0.026878
9.777187,0.512064,0.841077,-9.542577,0.028711,-0.085521,-0.032070
9.785501,0.472582,0.814756,-9.492327,0.039248,-0.099724,-0.038790
9.793861,0.514457,0.811167,-9.571290,0.033292,-0.090255,-0.036346
9.802149,0.514457,0.811167,-9.571290,0.034056,-0.087812,-0.037263
9.810510,0.484547,0.786042,-9.536594,0.034056,-0.087812,-0.037263
9.818780,0.503689,0.794417,-9.567701,0.036194,-0.091630,-0.042913
9.827343,0.494118,0.769292,-9.523434,0.028863,-0.078038,-0.035888
9.835549,0.482154,0.741775,-9.543773,0.037110,-0.092852,-0.040164
9.843107,0.482154,0.750150,-9.507881,0.034972,-0.090866,-0.036194
9.850659,0.507278,0.750150,-9.507881,0.034972,-0.090866,-0.036194
9.858234,0.496511,0.752543,-9.574880,0.035125,-0.093921,-0.032223
9.865692,0.497707,0.748953,-9.600004,0.034056,-0.095753,-0.027336
9.873325,0.484547,0.780060,-9.543773,0.029322,-0.087659,-0.024587
9.881444,0.484547,0.780060,-9.543773,0.029322,-0.101404,-0.031612
9.888980,0.461815,0.808774,-9.573683,0.037415,-0.101404,-0.031612
9.896560,0.530010,0.814756,-9.579665,0.033445,-0.094073,-0.031001
9.904083,0.492921,0.842274,-9.540184,0.031154,-0.086743,-0.034056
9.911694,0.492921,0.842274,-9.540184,0.028253,-0.082772,-0.036041
9.919214,0.508475,0.859023,-9.558130,0.028253,-0.082772,-0.036041
9.927136,0.498904,0.842274,-9.491131,0.032070,-0.082009,-0.040164
9.935237,0.508475,0.837488,-9.577272,0.036499,-0.089644,-0.043830
9.943547,0.507278,0.803988,-9.570094,0.033292,-0.085979,-0.040928
9.951808,0.507278,0.803988,-9.570094,0.034819,-0.090103,-0.040317
9.960190,0.491725,0.772882,-9.568898,0.034819,-0.090103,-0.040317
9.968445,0.478565,0.765703,-9.547362,0.035736,-0.094226,-0.039554
9.976881,0.460618,0.744168,-9.578469,0.041997,-0.103542,-0.040623
9.986245,0.509671,0.757328,-9.558130,0.039859,-0.103694,-0.040164
9.994805,0.508475,0.765703,-9.558130,0.033292,-0.093615,-0.036041
10.008959,0.508475,0.777667,-9.517452,0.037263,-0.097433,-0.038485
10.018832,0.515653,0.813560,-9.543773,0.033292,-0.093615,-0.035277
10.028160,0.512064,0.800399,-9.527023,0.030238,-0.087812,-0.031001
10.038666,0.485743,0.827917,-9.546166,0.035888,-0.095906,-0.034361
10.047734,0.516850,0.826720,-9.540184,0.032987,-0.091935,-0.033292
10.057726,0.520439,0.842274,-9.533005,0.034208,-0.090255,-0.036346
10.066402,0.501296,0.789631,-9.512666,0.033750,-0.088270,-0.038485
10.076812,0.491725,0.790828,-9.555737,0.031918,-0.081551,-0.037568
12.088277,0.509671,0.802792,-9.542577,0.031460,-0.079718,-0.043371
12.093445,0.519243,0.783649,-9.540184,0.032529,-0.080940,-0.043371
12.098181,0.519243,0.783649,-9.540184,0.032529,-0.080940,-0.043371
12.103081,0.513260,0.764507,-9.543773,0.033903,-0.083841,-0.039554
12.107631,0.513260,0.764507,-9.543773,0.033903,-0.083841,-0.039554
12.112432,0.473779,0.741775,-9.576076,0.036194,-0.092699,-0.039095
12.117107,0.473779,0.741775,-9.576076,0.036194,-0.092699,-0.039095
12.121568,0.512064,0.748953,-9.534202,0.035277,-0.096364,-0.035277
12.126116,0.512064,0.748953,-9.534202,0.035277,-0.096364,-0.035277
12.130838,0.521635,0.746561,-9.540184,0.035277,-0.093768,-0.029627
12.135362,0.521635,0.746561,-9.540184,0.035277,-0.093768,-0.029627
12.139856,0.531207,0.735793,-9.574880,0.035125,-0.093921,-0.030543
12.144327,0.531207,0.735793,-9.574880,0.035125,-0.093921,-0.030543
12.149091,0.531207,0.735793,-9.574880,0.031307,-0.087812,-0.030543
12.153965,0.495314,0.763310,-9.571290,0.031307,-0.087812,-0.030543
12.158746,0.495314,0.763310,-9.571290,0.032987,-0.091324,-0.034514
12.163421,0.489332,0.780060,-9.570094,0.032987,-0.091324,-0.034514
12.168255,0.489332,0.780060,-9.570094,0.032987,-0.091324,-0.034514
12.173148,0.468993,0.789631,-9.528220,0.035277,-0.093004,-0.035736
12.178002,0.468993,0.789631,-9.528220,0.035277,-0.093004,-0.035736
12.182826,0.504886,0.818345,-9.549755,0.035888,-0.092241,-0.036805
12.187552,0.504886,0.818345,-9.549755,0.035888,-0.092241,-0.036805
12.192452,0.527617,0.812363,-9.541380,0.032529,-0.088728,-0.035125
12.197142,0.527617,0.812363,-9.541380,0.032529,-0.088728,-0.035125
12.202403,0.521635,0.813560,-9.562916,0.032681,-0.088728,-0.034514
12.208044,0.521635,0.813560,-9.562916,0.032681,-0.088728,-0.034514
12.213006,0.474975,0.803988,-9.527023,0.035125,-0.091324,-0.034056
12.217860,0.474975,0.803988,-9.527023,0.035125,-0.091324,-0.034056
12.223025,0.471386,0.770489,-9.524630,0.034056,-0.091477,-0.034208
12.228663,0.471386,0.770489,-9.524630,0.037568,-0.096211,-0.033292
12.233490,0.492921,0.784846,-9.553344,0.037568,-0.096211,-0.033292
12.238389,0.492921,0.784846,-9.553344,0.037568,-0.099113,-0.033292
12.243887,0.460618,0.758525,-9.553344,0.037874,-0.099113,-0.033292
12.249789,0.478565,0.770489,-9.562916,0.035277,-0.093310,-0.032834
12.255190,0.478565,0.770489,-9.562916,0.035277,-0.093310,-0.032834
12.260526,0.476172,0.800399,-9.572487,0.032529,-0.087048,-0.034972
12.265584,0.476172,0.800399,-9.572487,0.032529,-0.087048,-0.034972
12.270303,0.507278,0.812363,-9.544969,0.030849,-0.084605,-0.033139
12.275053,0.507278,0.812363,-9.544969,0.030849,-0.084605,-0.033139
12.279883,0.494118,0.820738,-9.515059,0.032376,-0.085827,-0.035888
12.284534,0.494118,0.820738,-9.515059,0.032376,-0.085827,-0.035888
12.289354,0.494118,0.827917,-9.550951,0.035430,-0.090713,-0.039554
12.294851,0.546760,0.827917,-9.550951,0.035430,-0.090713,-0.039554
12.301174,0.522832,0.809970,-9.530612,0.038179,-0.096059,-0.040470
14.307796,0.525225,0.798006,-9.543773,0.033598,-0.092088,-0.035277
14.312624,0.525225,0.798006,-9.543773,0.033598,-0.092088,-0.035277
14.317373,0.545564,0.806381,-9.549755,0.034514,-0.090713,-0.036041
14.322091,0.545564,0.806381,-9.549755,0.034514,-0.090713,-0.036041
14.326926,0.538385,0.815953,-9.556933,0.034819,-0.090866,-0.036499
14.331654,0.538385,0.815953,-9.556933,0.034819,-0.090866,-0.036499
14.336372,0.515653,0.799203,-9.580862,0.032987,-0.087506,-0.034972
14.341033,0.515653,0.799203,-9.580862,0.032987,-0.087506,-0.034972
14.345512,0.515653,0.799203,-9.580862,0.032681,-0.088881,-0.033903
14.350078,0.506082,0.821935,-9.530612,0.032681,-0.088881,-0.033903
14.354590,0.506082,0.821935,-9.530612,0.032681,-0.088881,-0.033903
14.359249,0.500100,0.818345,-9.565308,0.034819,-0.091477,-0.035125
14.363907,0.500100,0.818345,-9.565308,0.034819,-0.091477,-0.035125
14.368479,0.484547,0.787239,-9.578469,0.034667,-0.091477,-0.037263
14.372953,0.484547,0.787239,-9.578469,0.034667,-0.091477,-0.037263
14.377779,0.506082,0.812363,-9.550951,0.034208,-0.092546,-0.038026
14.382538,0.506082,0.812363,-9.550951,0.034208,-0.092546,-0.038026
14.387310,0.504886,0.800399,-9.528220,0.033292,-0.089492,-0.035430
14.391832,0.504886,0.800399,-9.528220,0.033292,-0.089492,-0.035430
14.396342,0.527617,0.809970,-9.546166,0.034972,-0.093462,-0.036346
14.400813,0.527617,0.809970,-9.546166,0.034972,-0.093462,-0.036346
14.405273,0.527617,0.809970,-9.546166,0.032070,-0.089492,-0.033292
14.410031,0.551546,0.813560,-9.530612,0.032070,-0.089492,-0.033292
14.414707,0.551546,0.813560,-9.530612,0.032070,-0.092241,-0.034972
14.419380,0.502493,0.808774,-9.519845,0.034972,-0.092241,-0.034972
14.424049,0.502493,0.808774,-9.519845,0.034972,-0.092241,-0.034972
14.428918,0.545564,0.820738,-9.556933,0.031765,-0.088270,-0.031765
14.433621,0.545564,0.820738,-9.556933,0.031765,-0.088270,-0.031765
14.438190,0.528814,0.796810,-9.553344,0.033139,-0.090408,-0.034208
14.442996,0.528814,0.796810,-9.553344,0.033139,-0.090408,-0.034208
14.447833,0.507278,0.812363,-9.576076,0.032834,-0.089492,-0.034819
14.452651,0.507278,0.812363,-9.576076,0.032834,-0.089492,-0.034819
14.457385,0.502493,0.811167,-9.585647,0.034514,-0.091019,-0.035583
14.462034,0.502493,0.811167,-9.585647,0.034514,-0.091019,-0.035583
14.466685,0.531207,0.794417,-9.538987,0.030391,-0.082925,-0.033750
14.471614,0.531207,0.794417,-9.538987,0.030391,-0.082925,-0.033750
16.478271,0.515653,0.839881,-9.552148,0.032834,-0.094379,-0.033903
16.483155,0.468993,0.843470,-9.531809,0.034514,-0.094379,-0.036957
16.487930,0.468993,0.843470,-9.531809,0.034514,-0.094379,-0.036957
16.492653,0.552742,0.790828,-9.544969,0.033750,-0.089339,-0.035430
16.497192,0.552742,0.790828,-9.544969,0.033750,-0.089339,-0.035430
16.502033,0.552742,0.790828,-9.566505,0.032376,-0.081551,-0.032834
16.506987,0.570688,0.790828,-9.566505,0.032376,-0.081551,-0.032834
16.511671,0.570688,0.790828,-9.566505,0.027184,-0.073762,-0.033750
16.516378,0.544367,0.786042,-9.555737,0.027184,-0.073762,-0.033750
16.521624,0.544367,0.786042,-9.555737,0.035583,-0.090408,-0.038179
16.526692,0.567099,0.764507,-9.531809,0.035583,-0.090408,-0.038179
16.531885,0.567099,0.764507,-9.533005,0.032681,-0.087659,-0.036499
16.536534,0.537189,0.782453,-9.533005,0.032681,-0.087659,-0.036499
16.541395,0.537189,0.782453,-9.533005,0.030238,-0.087506,-0.032223
16.546087,0.545564,0.824327,-9.517452,0.030238,-0.087506,-0.032223
16.550788,0.545564,0.824327,-9.517452,0.030238,-0.087506,-0.032223
16.555678,0.561117,0.807578,-9.546166,0.031918,-0.094073,-0.031918
16.560339,0.561117,0.807578,-9.546166,0.031918,-0.094073,-0.031918
16.565188,0.526421,0.806381,-9.547362,0.035277,-0.098349,-0.030696
16.569771,0.526421,0.806381,-9.547362,0.035277,-0.098349,-0.030696
16.574344,0.518046,0.845863,-9.553344,0.032070,-0.094684,-0.029932
16.579101,0.518046,0.845863,-9.553344,0.032070,-0.094684,-0.029932
16.584304,0.508475,0.813560,-9.513863,0.032529,-0.091477,-0.035277
16.589582,0.508475,0.813560,-9.513863,0.032529,-0.091477,-0.035277
16.594330,0.521635,0.783649,-9.565308,0.030849,-0.080329,-0.038179
16.599150,0.521635,0.783649,-9.565308,0.030849,-0.080329,-0.038179
16.604529,0.531207,0.812363,-9.544969,0.030085,-0.076053,-0.036957
16.610251,0.531207,0.812363,-9.544969,0.030085,-0.076053,-0.036957
16.615019,0.592224,0.787239,-9.544969,0.030696,-0.072693,-0.034514
16.621044,0.592224,0.787239,-9.544969,0.029932,-0.077885,-0.032834
16.626612,0.585045,0.764507,-9.601201,0.029932,-0.077885,-0.032834
16.631490,0.585045,0.764507,-9.601201,0.035888,-0.095600,-0.036346
16.637221,0.570688,0.762114,-9.597611,0.035888,-0.095600,-0.036346
16.642544,0.516850,0.788435,-9.603594,0.035888,-0.099113,-0.035125
16.647331,0.516850,0.788435,-9.603594,0.035888,-0.099113,-0.035125
16.651968,0.516850,0.821935,-9.504291,0.033598,-0.097433,-0.033292
16.656755,0.565903,0.821935,-9.504291,0.033598,-0.097433,-0.033292
16.661458,0.565903,0.821935,-9.504291,0.030238,-0.091019,-0.033139
16.667001,0.512064,0.801596,-9.559326,0.030238,-0.091019,-0.033139
16.672200,0.530010,0.855434,-9.523434,0.034819,-0.095600,-0.038179
16.677731,0.530010,0.855434,-9.523434,0.034819,-0.095600,-0.038179
16.683055,0.427119,0.850648,-9.546166,0.035583,-0.090561,-0.040775
16.688755,0.427119,0.850648,-9.546166,0.035583,-0.090561,-0.040775
16.694106,0.524028,0.809970,-9.489934,0.034819,-0.083230,-0.040317
16.699149,0.524028,0.809970,-9.489934,0.034819,-0.083230,-0.040317
16.704057,0.574277,0.831506,-9.550951,0.031918,-0.082772,-0.036194
16.709158,0.574277,0.831506,-9.550951,0.031918,-0.082772,-0.036194
16.713889,0.549153,0.799203,-9.565308,0.033903,-0.088881,-0.036041
16.718665,0.549153,0.799203,-9.565308,0.033903,-0.088881,-0.036041
16.723517,0.567099,0.759721,-9.555737,0.038485,-0.096059,-0.036805
16.728554,0.567099,0.759721,-9.555737,0.038485,-0.096059,-0.036805
16.733345,0.562313,0.796810,-9.523434,0.034208,-0.097128,-0.033598
16.738199,0.562313,0.796810,-9.523434,0.034208,-0.097128,-0.033598
16.743208,0.539581,0.801596,-9.542577,0.035430,-0.097280,-0.032223
16.748676,0.539581,0.801596,-9.542577,0.035430,-0.097280,-0.032223
16.753681,0.583849,0.800399,-9.536594,0.035125,-0.099418,-0.033903
16.759265,0.583849,0.800399,-9.536594,0.035125,-0.099418,-0.033903
16.764325,0.483350,0.835095,-9.546166,0.031918,-0.092546,-0.034208
16.769723,0.483350,0.835095,-9.546166,0.031918,-0.092546,-0.034208
16.775155,0.510868,0.818345,-9.552148,0.035277,-0.092393,-0.039401
16.780277,0.510868,0.818345,-9.552148,0.035277,-0.092393,-0.039401
16.785390,0.555135,0.815953,-9.572487,0.033139,-0.085368,-0.035277
16.790383,0.555135,0.815953,-9.572487,0.033139,-0.085368,-0.035277
16.794832,0.549153,0.814756,-9.538987,0.032987,-0.083078,-0.037110
16.799383,0.549153,0.814756,-9.538987,0.032987,-0.083078,-0.037110
16.803844,0.533599,0.794417,-9.559326,0.036194,-0.086896,-0.037263
16.808501,0.533599,0.794417,-9.559326,0.036194,-0.086896,-0.037263
16.812947,0.538385,0.752543,-9.560523,0.035125,-0.091324,-0.034208
16.817367,0.538385,0.752543,-9.560523,0.035125,-0.091324,-0.034208
16.821888,0.582652,0.765703,-9.542577,0.035736,-0.097280,-0.032223
16.826384,0.582652,0.765703,-9.542577,0.035736,-0.097280,-0.032223
16.830901,0.582652,0.765703,-9.542577,0.033750,-0.094837,-0.030238
16.835390,0.537189,0.777667,-9.548559,0.033750,-0.094837,-0.030238
16.839819,0.537189,0.777667,-9.548559,0.033750,-0.094837,-0.030238
16.844238,0.540778,0.814756,-9.568898,0.033292,-0.097891,-0.030543
16.848729,0.540778,0.814756,-9.568898,0.033292,-0.097891,-0.030543
16.853154,0.541974,0.787239,-9.562916,0.036957,-0.101709,-0.035736
16.857723,0.541974,0.787239,-9.562916,0.036957,-0.101709,-0.035736
16.862192,0.540778,0.801596,-9.544969,0.031460,-0.089797,-0.032834
16.866645,0.540778,0.801596,-9.544969,0.031460,-0.089797,-0.032834
16.871113,0.540778,0.801596,-9.544969,0.032529,-0.089644,-0.034056
16.875712,0.526421,0.821935,-9.522238,0.032529,-0.089644,-0.034056
16.880389,0.526421,0.821935,-9.522238,0.032529,-0.089644,-0.034361
16.884823,0.607777,0.788435,-9.548559,0.034972,-0.086437,-0.034361
16.889370,0.607777,0.788435,-9.548559,0.034972,-0.086437,-0.034361
16.893787,0.546760,0.800399,-9.550951,0.033750,-0.083994,-0.035736
16.898229,0.546760,0.800399,-9.550951,0.033750,-0.083994,-0.035736
16.902645,0.592224,0.774078,-9.546166,0.034667,-0.091019,-0.034361
16.907205,0.592224,0.774078,-9.546166,0.034667,-0.091019,-0.034361
16.911728,0.567099,0.762114,-9.558130,0.037110,-0.096975,-0.036652
16.916147,0.567099,0.762114,-9.558130,0.037110,-0.096975,-0.036652
16.920518,0.567099,0.762114,-9.558130,0.037110,-0.091324,-0.033750
16.924878,0.547956,0.758525,-9.580862,0.031612,-0.091324,-0.033750
16.929330,0.547956,0.758525,-9.580862,0.031612,-0.091324,-0.033750
16.933745,0.545564,0.805185,-9.537791,0.025962,-0.084147,-0.026878
16.938231,0.545564,0.805185,-9.537791,0.025962,-0.084147,-0.026878
16.942698,0.574277,0.812363,-9.556933,0.031154,-0.092546,-0.031612
16.947155,0.574277,0.812363,-9.556933,0.031154,-0.092546,-0.031612
16.951593,0.534796,0.799203,-9.577272,0.033445,-0.091783,-0.032376
16.956055,0.534796,0.799203,-9.577272,0.033445,-0.091783,-0.032376
16.960712,0.534796,0.799203,-9.577272,0.032834,-0.094073,-0.032987
16.965435,0.485743,0.837488,-9.517452,0.032834,-0.094073,-0.032987
18.974449,0.401994,0.715454,-9.590433,0.032681,-0.086132,-0.043219
18.981652,0.638884,0.725025,-9.528220,0.031612,-0.075289,-0.035583
18.988729,0.658026,0.698704,-9.579665,0.033292,-0.075595,-0.036346
18.994544,0.658026,0.698704,-9.579665,0.033292,-0.075595,-0.036346
19.002033,0.622134,0.741775,-9.546166,0.034819,-0.081856,-0.034972
19.009483,0.551546,0.731007,-9.534202,0.036957,-0.097586,-0.033598
19.015424,0.551546,0.731007,-9.534202,0.036957,-0.097586,-0.033598
19.021802,0.565903,0.702293,-9.548559,0.040012,-0.112246,-0.030391
19.027545,0.565903,0.702293,-9.548559,0.037568,-0.104916,-0.029627
19.034343,0.524028,0.708275,-9.553344,0.037568,-0.104916,-0.029627
19.040926,0.463011,0.717847,-9.571290,0.034056,-0.098502,-0.032834
19.046927,0.463011,0.717847,-9.571290,0.034056,-0.084452,-0.032070
19.052663,0.559920,0.726222,-9.504291,0.030696,-0.084452,-0.032070
19.057604,0.559920,0.726222,-9.565308,0.030696,-0.081551,-0.038485
19.062517,0.583849,0.744168,-9.565308,0.030696,-0.081551,-0.038485
19.067437,0.583849,0.744168,-9.565308,0.031918,-0.079107,-0.042302
19.072744,0.531207,0.725025,-9.521041,0.031918,-0.079107,-0.042302
19.077710,0.531207,0.685544,-9.567701,0.033598,-0.083078,-0.039248
19.082614,0.587438,0.685544,-9.567701,0.033598,-0.083078,-0.039248
19.087703,0.587438,0.695115,-9.576076,0.032529,-0.084147,-0.033445
19.092718,0.610170,0.695115,-9.576076,0.032529,-0.084147,-0.033445
19.097711,0.610170,0.699901,-9.576076,0.033139,-0.089339,-0.032376
19.102658,0.595813,0.699901,-9.576076,0.033139,-0.089339,-0.032376
19.107679,0.595813,0.716650,-9.547362,0.038637,-0.099876,-0.034514
19.112577,0.579063,0.716650,-9.547362,0.038637,-0.099876,-0.034514
19.117533,0.579063,0.716650,-9.547362,0.037415,-0.105527,-0.036194
19.122653,0.567099,0.702293,-9.547362,0.037415,-0.105527,-0.036194
19.127587,0.567099,0.692722,-9.552148,0.031918,-0.093921,-0.037110
19.133221,0.486939,0.692722,-9.552148,0.031918,-0.093921,-0.037110
19.138846,0.574277,0.725025,-9.518648,0.032070,-0.085216,-0.036041
19.144627,0.574277,0.725025,-9.518648,0.032070,-0.085216,-0.036041
19.150586,0.622134,0.731007,-9.546166,0.031154,-0.083841,-0.034819
21.159718,0.583849,0.711865,-9.547362,0.034208,-0.087812,-0.036805
21.165809,0.537189,0.726222,-9.566505,0.033598,-0.089797,-0.036499
21.171644,0.537189,0.726222,-9.566505,0.033598,-0.089797,-0.036499
21.178606,0.602991,0.733400,-9.536594,0.034208,-0.091019,-0.032223
21.185881,0.589831,0.727418,-9.529416,0.033139,-0.091630,-0.031154
21.193629,0.589831,0.727418,-9.529416,0.035888,-0.096669,-0.035888
21.200006,0.494118,0.731007,-9.568898,0.035888,-0.096669,-0.035888
21.204798,0.543171,0.703490,-9.585647,0.038485,-0.097891,-0.037568
21.209512,0.543171,0.703490,-9.585647,0.038485,-0.097891,-0.037568
21.214207,0.543171,0.704686,-9.536594,0.034972,-0.086437,-0.035430
21.218861,0.558724,0.704686,-9.536594,0.034972,-0.086437,-0.035430
21.223580,0.558724,0.704686,-9.536594,0.036194,-0.087965,-0.038790
21.228245,0.598206,0.710668,-9.594022,0.036194,-0.087965,-0.038790
21.232948,0.598206,0.710668,-9.594022,0.036194,-0.087965,-0.035888
21.237569,0.594616,0.717847,-9.553344,0.031918,-0.083689,-0.035888
21.242148,0.594616,0.717847,-9.553344,0.031918,-0.083689,-0.035888
21.246776,0.559920,0.710668,-9.586844,0.031612,-0.085216,-0.035430
21.251336,0.559920,0.710668,-9.586844,0.031612,-0.085216,-0.035430
21.255995,0.543171,0.741775,-9.556933,0.033598,-0.089797,-0.033292
21.260563,0.543171,0.741775,-9.556933,0.033598,-0.089797,-0.033292
21.264989,0.543171,0.769292,-9.548559,0.034056,-0.094379,-0.031460
21.269716,0.543171,0.769292,-9.548559,0.034056,-0.094379,-0.031460
21.274114,0.543171,0.747757,-9.531809,0.037721,-0.100182,-0.035125
21.278666,0.565903,0.747757,-9.531809,0.037721,-0.100182,-0.035125
21.283223,0.565903,0.747757,-9.531809,0.037721,-0.098349,-0.035125
21.287751,0.557528,0.729811,-9.596415,0.037721,-0.098349,-0.035125
21.292233,0.557528,0.729811,-9.596415,0.037721,-0.098349,-0.035125
21.296979,0.567099,0.695115,-9.540184,0.035277,-0.096211,-0.035583
21.301852,0.567099,0.695115,-9.540184,0.035277,-0.096211,-0.035583
21.306517,0.583849,0.692722,-9.570094,0.034667,-0.088117,-0.034819
21.311030,0.583849,0.692722,-9.570094,0.034667,-0.088117,-0.034819
21.315556,0.558724,0.713061,-9.507881,0.031460,-0.082620,-0.033903
21.320368,0.558724,0.713061,-9.507881,0.031460,-0.082620,-0.033903
21.325305,0.580259,0.705883,-9.542577,0.033598,-0.088728,-0.035430
21.329803,0.580259,0.705883,-9.542577,0.033598,-0.088728,-0.035430
21.334396,0.559920,0.704686,-9.533005,0.035125,-0.092393,-0.037415
21.338906,0.559920,0.704686,-9.533005,0.035125,-0.092393,-0.037415
21.343394,0.559920,0.704686,-9.533005,0.039095,-0.105832,-0.037110
21.347931,0.579063,0.752543,-9.513863,0.039095,-0.105832,-0.037110
21.352585,0.579063,0.752543,-9.513863,0.039095,-0.105832,-0.037110
21.357052,0.585045,0.733400,-9.488738,0.033750,-0.101404,-0.030391
21.361519,0.585045,0.733400,-9.488738,0.033750,-0.101404,-0.030391
21.366014,0.516850,0.739382,-9.604790,0.039401,-0.110872,-0.034056
21.370521,0.516850,0.739382,-9.604790,0.039401,-0.110872,-0.034056
21.374866,0.512064,0.741775,-9.558130,0.035736,-0.108734,-0.031154
21.379307,0.512064,0.741775,-9.558130,0.035736,-0.108734,-0.031154
21.383787,0.512064,0.741775,-9.541380,0.038026,-0.109650,-0.035125
21.388379,0.528814,0.729811,-9.541380,0.038026,-0.109650,-0.035125
21.392833,0.528814,0.729811,-9.541380,0.038026,-0.109650,-0.033445
21.397283,0.502493,0.735793,-9.566505,0.033139,-0.094379,-0.033445
21.401724,0.502493,0.735793,-9.566505,0.033139,-0.094379,-0.033445
21.406195,0.549153,0.740579,-9.547362,0.030391,-0.080329,-0.032223
21.410724,0.549153,0.740579,-9.547362,0.030391,-0.080329,-0.032223
21.415160,0.520439,0.731007,-9.615558,0.032070,-0.075747,-0.040164
21.419599,0.520439,0.731007,-9.615558,0.032070,-0.075747,-0.040164
21.424059,0.553938,0.687936,-9.590433,0.032376,-0.069333,-0.040775
21.428531,0.553938,0.687936,-9.590433,0.032376,-0.069333,-0.040775
21.433019,0.553938,0.687936,-9.590433,0.035125,-0.066890,-0.040317
21.437587,0.599402,0.659223,-9.547362,0.035125,-0.066890,-0.040317
21.442124,0.599402,0.659223,-9.547362,0.035125,-0.066890,-0.040317
21.446481,0.681954,0.659223,-9.598808,0.034972,-0.080176,-0.035125
21.450924,0.681954,0.659223,-9.598808,0.034972,-0.080176,-0.035125
21.455549,0.539581,0.748953,-9.576076,0.035430,-0.094837,-0.034819
21.460007,0.539581,0.748953,-9.576076,0.035430,-0.094837,-0.034819
21.464526,0.614955,0.695115,-9.565308,0.032681,-0.104305,-0.026878
21.469044,0.614955,0.695115,-9.565308,0.032681,-0.104305,-0.026878
21.473503,0.614955,0.695115,-9.574880,0.036346,-0.115454,-0.029627
21.477965,0.564706,0.722632,-9.574880,0.036346,-0.115454,-0.029627
21.482395,0.564706,0.722632,-9.574880,0.036346,-0.115454,-0.029627
21.487262,0.522832,0.748953,-9.542577,0.034819,-0.105985,-0.030849
21.491832,0.522832,0.748953,-9.542577,0.034819,-0.105985,-0.030849
21.496294,0.489332,0.752543,-9.540184,0.032223,-0.099418,-0.031154
21.500767,0.489332,0.752543,-9.540184,0.032223,-0.099418,-0.031154
21.505172,0.518046,0.763310,-9.536594,0.031307,-0.088423,-0.030085
21.509668,0.518046,0.763310,-9.536594,0.031307,-0.088423,-0.030085
21.514126,0.558724,0.729811,-9.572487,0.034056,-0.082314,-0.035277
21.518594,0.558724,0.729811,-9.572487,0.034056,-0.082314,-0.035277
21.523017,0.558724,0.729811,-9.572487,0.036194,-0.085979,-0.040317
21.527448,0.531207,0.726222,-9.560523,0.036194,-0.085979,-0.040317
21.532007,0.531207,0.726222,-9.560523,0.036194,-0.085979,-0.040317
21.536646,0.571885,0.666401,-9.573683,0.034667,-0.083994,-0.038790
21.541092,0.571885,0.666401,-9.573683,0.034667,-0.083994,-0.038790
21.545592,0.624527,0.652044,-9.566505,0.030696,-0.081703,-0.032834
21.550420,0.624527,0.652044,-9.566505,0.030696,-0.081703,-0.032834
23.558193,0.468993,0.674776,-9.570094,0.033598,-0.092852,-0.033292
23.564171,0.491725,0.673580,-9.562916,0.034514,-0.086896,-0.034819
23.570127,0.491725,0.677169,-9.554541,0.034819,-0.089797,-0.036499
23.575827,0.441476,0.677169,-9.554541,0.034819,-0.089797,-0.036499
23.581593,0.489332,0.668794,-9.555737,0.035736,-0.092241,-0.034208
23.587516,0.489332,0.668794,-9.555737,0.035736,-0.092241,-0.034208
23.592945,0.553938,0.668794,-9.586844,0.034819,-0.091324,-0.032834
23.598337,0.553938,0.668794,-9.586844,0.034819,-0.091324,-0.032834
23.603859,0.446261,0.701097,-9.582058,0.033445,-0.091477,-0.033903
23.609227,0.446261,0.701097,-9.582058,0.031460,-0.094379,-0.032529
23.614452,0.436690,0.686740,-9.552148,0.031460,-0.094379,-0.032529
23.620081,0.482154,0.646062,-9.555737,0.034056,-0.094684,-0.032223
23.625048,0.482154,0.646062,-9.555737,0.034056,-0.094684,-0.032223
23.629789,0.482154,0.646062,-9.555737,0.034208,-0.089186,-0.035430
23.634408,0.454636,0.664008,-9.579665,0.034208,-0.089186,-0.035430
23.639010,0.454636,0.664008,-9.579665,0.034208,-0.089186,-0.040317
23.643625,0.479761,0.677169,-9.567701,0.036499,-0.094073,-0.040317
23.648393,0.479761,0.677169,-9.567701,0.036499,-0.094073,-0.040317
23.653120,0.451047,0.660419,-9.513863,0.034972,-0.090713,-0.038790
23.657863,0.451047,0.660419,-9.513863,0.034972,-0.090713,-0.038790
23.662436,0.453440,0.678365,-9.576076,0.032987,-0.086285,-0.034514
23.667028,0.453440,0.678365,-9.576076,0.032987,-0.086285,-0.034514
23.671521,0.455833,0.679562,-9.579665,0.037263,-0.095295,-0.037263
23.675998,0.455833,0.679562,-9.579665,0.037263,-0.095295,-0.037263
23.680460,0.478565,0.664008,-9.567701,0.038637,-0.096975,-0.038179
23.685143,0.478565,0.664008,-9.567701,0.038637,-0.096975,-0.038179
23.689946,0.478565,0.653241,-9.565308,0.036957,-0.095142,-0.035430
23.694543,0.494118,0.653241,-9.565308,0.036957,-0.095142,-0.035430
23.699275,0.494118,0.653241,-9.565308,0.031612,-0.086590,-0.031918
23.703822,0.466600,0.683151,-9.570094,0.031612,-0.086590,-0.031918
23.708400,0.466600,0.683151,-9.570094,0.031612,-0.086590,-0.031918
23.713024,0.502493,0.672383,-9.562916,0.030085,-0.084147,-0.031612
23.717455,0.502493,0.672383,-9.562916,0.030085,-0.084147,-0.031612
23.722236,0.502493,0.695115,-9.559326,0.035125,-0.094684,-0.036957
23.726870,0.502493,0.695115,-9.559326,0.035125,-0.094684,-0.036957
23.731377,0.476172,0.695115,-9.531809,0.036805,-0.095600,-0.038026
23.735838,0.476172,0.695115,-9.531809,0.036805,-0.095600,-0.038026
23.740206,0.480957,0.696311,-9.546166,0.037263,-0.095600,-0.038332
23.744543,0.480957,0.696311,-9.546166,0.037263,-0.095600,-0.038332
23.748974,0.480957,0.696311,-9.546166,0.037263,-0.091935,-0.037721
23.753453,0.519243,0.680758,-9.541380,0.035277,-0.091935,-0.037721
23.757810,0.519243,0.680758,-9.541380,0.035277,-0.091935,-0.037721
23.762206,0.514457,0.674776,-9.549755,0.031765,-0.085979,-0.032987
23.766562,0.514457,0.674776,-9.549755,0.031765,-0.085979,-0.032987
23.771020,0.510868,0.644866,-9.556933,0.032834,-0.090103,-0.036041
23.775412,0.510868,0.644866,-9.556933,0.032834,-0.090103,-0.036041
23.779915,0.452243,0.667598,-9.541380,0.032223,-0.087048,-0.032987
23.784373,0.452243,0.667598,-9.541380,0.032223,-0.087048,-0.032987
23.789315,0.452243,0.667598,-9.541380,0.034667,-0.088728,-0.034667
23.794449,0.497707,0.654437,-9.548559,0.034667,-0.088728,-0.034667
25.802009,0.549153,0.747757,-9.553344,0.036652,-0.093310,-0.031765
25.807421,0.581456,0.686740,-9.576076,0.035736,-0.095448,-0.029780
25.813212,0.581456,0.686740,-9.576076,0.035736,-0.095448,-0.029780
25.818639,0.583849,0.728614,-9.509077,0.037874,-0.108581,-0.029474
25.823957,0.583849,0.728614,-9.509077,0.037874,-0.108581,-0.029474
25.829454,0.482154,0.754936,-9.480363,0.037568,-0.101251,-0.032681
25.834946,0.482154,0.754936,-9.480363,0.037568,-0.101251,-0.032681
25.840590,0.502493,0.732204,-9.567701,0.037415,-0.100640,-0.036499
25.846088,0.502493,0.732204,-9.534202,0.033598,-0.091783,-0.035277
25.851364,0.530010,0.729811,-9.534202,0.033598,-0.091783,-0.035277
25.856776,0.532403,0.777667,-9.556933,0.032834,-0.083078,-0.037263
25.862178,0.532403,0.777667,-9.556933,0.032834,-0.083078,-0.037263
25.867931,0.507278,0.774078,-9.584451,0.032376,-0.080481,-0.037874
25.873312,0.507278,0.774078,-9.584451,0.032376,-0.080481,-0.037874
25.878617,0.565903,0.766900,-9.544969,0.036499,-0.089492,-0.037568
25.884127,0.565903,0.766900,-9.544969,0.036499,-0.089492,-0.037568
25.889466,0.553938,0.769292,-9.573683,0.036652,-0.093462,-0.038179
25.894796,0.553938,0.769292,-9.573683,0.036652,-0.093462,-0.038179
25.900238,0.541974,0.741775,-9.542577,0.034056,-0.089034,-0.033292
25.905754,0.541974,0.741775,-9.542577,0.033903,-0.094531,-0.032681
25.910986,0.561117,0.729811,-9.603594,0.033903,-0.094531,-0.032681
25.916239,0.543171,0.727418,-9.516255,0.034514,-0.099724,-0.030849
25.921373,0.543171,0.727418,-9.516255,0.034514,-0.099724,-0.030849
25.926574,0.490529,0.739382,-9.568898,0.034514,-0.094073,-0.035736
25.931785,0.490529,0.739382,-9.568898,0.034514,-0.094073,-0.035736
25.936925,0.482154,0.739382,-9.542577,0.033292,-0.086896,-0.039095
25.942030,0.482154,0.739382,-9.542577,0.033292,-0.086896,-0.039095
25.947245,0.538385,0.714258,-9.574880,0.036346,-0.084605,-0.040928
25.952427,0.538385,0.714258,-9.574880,0.036346,-0.084605,-0.040928
25.957580,0.592224,0.738186,-9.584451,0.034972,-0.082467,-0.038179
25.963169,0.592224,0.738186,-9.584451,0.034972,-0.082467,-0.038179
27.971584,0.509671,0.905683,-9.536594,0.034667,-0.091172,-0.029780
27.976760,0.522832,0.890130,-9.537791,0.034667,-0.096517,-0.029780
27.981713,0.522832,0.890130,-9.537791,0.034667,-0.102320,-0.027947
27.986556,0.492921,0.922433,-9.513863,0.038026,-0.102320,-0.027947
27.992155,0.492921,0.922433,-9.513863,0.037721,-0.104000,-0.028711
27.997066,0.479761,0.916451,-9.522238,0.037721,-0.104000,-0.028711
28.001784,0.479761,0.916451,-9.522238,0.037721,-0.103236,-0.033598
28.006818,0.476172,0.878166,-9.541380,0.036346,-0.103236,-0.033598
28.011830,0.476172,0.878166,-9.541380,0.036346,-0.095295,-0.034361
28.016859,0.471386,0.879362,-9.556933,0.033292,-0.095295,-0.034361
28.021690,0.471386,0.879362,-9.556933,0.033292,-0.089797,-0.038485
28.026504,0.501296,0.869791,-9.529416,0.034972,-0.089797,-0.038485
28.031405,0.501296,0.869791,-9.529416,0.034972,-0.089797,-0.038485
28.036148,0.485743,0.885344,-9.538987,0.030696,-0.079565,-0.037874
28.040840,0.485743,0.885344,-9.538987,0.030696,-0.079565,-0.037874
28.045474,0.547956,0.917647,-9.501899,0.033598,-0.083841,-0.036499
28.050164,0.547956,0.917647,-9.501899,0.033598,-0.083841,-0.036499
28.054798,0.515653,0.932004,-9.523434,0.036957,-0.097586,-0.037415
28.059532,0.515653,0.932004,-9.523434,0.036957,-0.097586,-0.037415
28.064180,0.455833,0.927219,-9.547362,0.036041,-0.094684,-0.038026
28.068722,0.455833,0.927219,-9.547362,0.036041,-0.094684,-0.038026
28.073254,0.514457,0.882952,-9.607183,0.034056,-0.100182,-0.031001
28.077807,0.514457,0.882952,-9.607183,0.034056,-0.100182,-0.031001
28.082579,0.514457,0.892523,-9.516255,0.036499,-0.094379,-0.032681
28.087109,0.472582,0.892523,-9.516255,0.036499,-0.094379,-0.032681
28.091589,0.472582,0.892523,-9.516255,0.036499,-0.097891,-0.035125
28.096170,0.494118,0.910469,-9.554541,0.034514,-0.097891,-0.035125
28.100727,0.494118,0.910469,-9.554541,0.034514,-0.097891,-0.035125
28.105209,0.494118,0.879362,-9.489934,0.033903,-0.091477,-0.038026
28.109754,0.494118,0.879362,-9.489934,0.033903,-0.091477,-0.038026
28.114691,0.497707,0.890130,-9.503095,0.030543,-0.083689,-0.038026
30.121697,0.491725,0.880559,-9.542577,0.034667,-0.089034,-0.039401
30.126610,0.491725,0.880559,-9.542577,0.034667,-0.089034,-0.039401
30.131471,0.494118,0.868595,-9.535398,0.032070,-0.092546,-0.035736
30.136224,0.494118,0.868595,-9.535398,0.032070,-0.092546,-0.035736
30.140901,0.557528,0.866202,-9.549755,0.028100,-0.084910,-0.029474
30.145969,0.557528,0.866202,-9.549755,0.028100,-0.084910,-0.029474
30.151056,0.540778,0.898505,-9.555737,0.029322,-0.082314,-0.032529
30.156506,0.540778,0.898505,-9.555737,0.029322,-0.082314,-0.032529
30.161532,0.513260,0.869791,-9.588040,0.034056,-0.094379,-0.038332
30.166399,0.513260,0.869791,-9.588040,0.034056,-0.094379,-0.038332
30.171041,0.485743,0.874577,-9.540184,0.034972,-0.093615,-0.038179
30.175797,0.485743,0.874577,-9.540184,0.034972,-0.093615,-0.038179
30.180480,0.512064,0.867398,-9.534202,0.031918,-0.087812,-0.035583
30.185112,0.512064,0.867398,-9.534202,0.031918,-0.087812,-0.035583
30.190337,0.524028,0.882952,-9.573683,0.031001,-0.085368,-0.037568
30.196112,0.524028,0.882952,-9.573683,0.031001,-0.085368,-0.037568
