timestamp,accX,accY,accZ,gyroX,gyroY,gyroZ
6.67572021484375e-06,0.01914258080000003,0.020338992099999897,0.0023928226000009545,-0.0007635815477475202,-0.0025961772623415563,-0.0001527163095495082
0.009923219680786133,0.015553346900000042,0.007178467799999977,0.01914258080000053,-0.0038179077387375943,0.0032070425005395753,0.0041233403578366
0.019222259521484375,-0.010767701699999965,0.03469592769999996,0.0,0.00183259571459405,-0.004886921905584124,0.0007635815477475202
0.02976679801940918,-0.010767701699999965,0.03349951639999993,0.005982056500002386,-0.0010690141668465228,-0.0009162978572970215,0.00183259571459405
0.03874659538269043,0.020338992100000064,0.03349951639999993,0.005982056500002386,0.0001527163095495082,0.0007635815477475272,-0.001221730476396031
0.04849505424499512,0.023928226000000052,0.04905286330000003,0.013160524300001697,-0.00030543261909900254,0.0027488935718910645,-0.0033597588100890835
0.05742001533508301,0.004785645200000077,-0.0035892338999999884,0.03349951639999915,-0.0021380283336930525,0.009468411192069232,-0.002443460952792062
0.06766271591186523,-0.004785645199999966,-0.0023928226000000663,-0.009571290399996712,0.0033597588100890835,-0.0009162978572970215,-0.005955936072430647
2.079181432723999,0.02273181470000002,-0.009571290400000043,0.005982056500002386,-0.0015271630954950335,0.01007927643026725,-0.008246680715673207
2.084543466567993,0.02273181470000002,-0.009571290400000043,0.005982056500002386,-0.0015271630954950335,0.01007927643026725,-0.008246680715673207
2.089315891265869,0.016749758200000076,-0.02871387120000002,0.0023928226000009545,-0.00015271630954950127,0.007177666548826678,-0.004428772976935606
2.094214677810669,0.016749758200000076,-0.02871387120000002,0.0023928226000009545,-0.00015271630954950127,0.007177666548826678,-0.004428772976935606
2.0987658500671387,-0.022731814699999964,-0.05144568589999998,-0.02991028249999772,0.0021380283336930525,-0.0016798794050445487,-0.0039706240482871025
2.1035664081573486,-0.022731814699999964,-0.05144568589999998,-0.02991028249999772,0.0021380283336930525,-0.0016798794050445487,-0.0039706240482871025
2.1082422733306885,-0.022731814699999964,-0.05144568589999998,-0.02991028249999772,0.001221730476396038,-0.005345070834232635,-0.0001527163095495082
2.1127026081085205,0.015553346900000042,-0.044267218100000005,0.01196411300000122,0.001221730476396038,-0.005345070834232635,-0.0001527163095495082
2.117250680923462,0.015553346900000042,-0.044267218100000005,0.01196411300000122,0.001221730476396038,-0.005345070834232635,-0.0001527163095495082
2.1219730377197266,0.025124637300000086,-0.04666004069999996,0.005982056500002386,0.001221730476396038,-0.0027488935718910645,0.0054977871437821395
2.1264967918395996,0.025124637300000086,-0.04666004069999996,0.005982056500002386,0.001221730476396038,-0.0027488935718910645,0.0054977871437821395
2.1309900283813477,0.03469592770000002,-0.057427742399999926,-0.028713871199997243,0.0010690141668465297,-0.0029016098814405727,0.0045814892864851145
2.1354622840881348,0.03469592770000002,-0.057427742399999926,-0.028713871199997243,0.0010690141668465297,-0.0029016098814405727,0.0045814892864851145
2.1401779651641846,-0.0011964112999999776,-0.02991028250000005,-0.025124637299999364,-0.0027488935718910645,0.0032070425005395753,0.0045814892864851145
2.145063638687134,-0.0011964112999999776,-0.02991028250000005,-0.025124637299999364,-0.0027488935718910645,0.0032070425005395753,0.0045814892864851145
2.149834156036377,-0.007178467799999977,-0.013160524300000032,-0.023928225999998887,-0.0010690141668465228,-0.00030543261909900254,0.000610865238198012
2.1545135974884033,-0.007178467799999977,-0.013160524300000032,-0.023928225999998887,-0.0010690141668465228,-0.00030543261909900254,0.000610865238198012
2.1593496799468994,-0.02751745989999993,-0.0035892338999999884,0.017946169500000053,0.001221730476396038,-0.0019853120241435512,-0.000610865238198012
2.1642441749572754,-0.02751745989999993,-0.0035892338999999884,0.017946169500000053,0.001221730476396038,-0.0019853120241435512,-0.000610865238198012
2.1690969467163086,0.008374879100000066,0.02512463729999992,-0.003589233899997879,0.00183259571459405,-0.001221730476396038,-0.0016798794050445418
2.173921585083008,0.008374879100000066,0.02512463729999992,-0.003589233899997879,0.00183259571459405,-0.001221730476396038,-0.0016798794050445418
2.178645610809326,0.03110669380000003,0.019142580799999975,0.004785645200001909,-0.0015271630954950335,0.0022907446432425538,0.0
2.1835427284240723,0.03110669380000003,0.019142580799999975,0.004785645200001909,-0.0015271630954950335,0.0022907446432425538,0.0
2.1882336139678955,0.03110669380000003,0.020338992099999897,-0.016749758199999576,-0.0013744467859455323,0.0022907446432425538,0.000610865238198012
2.193493366241455,0.025124637300000086,0.020338992099999897,-0.016749758199999576,-0.0013744467859455323,0.0022907446432425538,0.000610865238198012
2.1991379261016846,-0.02153540339999993,0.010767701699999965,0.01914258080000053,0.0010690141668465297,-0.00030543261909900254,0.0010690141668465297
2.2041008472442627,-0.02153540339999993,0.010767701699999965,0.01914258080000053,0.0010690141668465297,-0.00030543261909900254,0.0010690141668465297
2.2089545726776123,-0.025124637299999975,-0.022731814699999964,0.021535403400001485,0.0,-0.00045814892864851076,0.0009162978572970215
2.2139382362365723,-0.025124637299999975,-0.022731814699999964,0.021535403400001485,0.0,-0.00045814892864851076,0.0009162978572970215
2.2197577953338623,-0.0035892338999999884,-0.00837487910000001,-0.007178467799999311,0.0035124751196385917,-0.00519235452468314,0.00183259571459405
2.22458553314209,-0.0035892338999999884,-0.00837487910000001,-0.007178467799999311,0.0035124751196385917,-0.00519235452468314,0.00183259571459405
2.2294795513153076,-0.03589233899999994,-0.03469592769999996,-0.007178467799999311,0.0038179077387375943,-0.0080939644061237,0.00183259571459405
2.234800100326538,-0.03589233899999994,-0.03469592769999996,-0.007178467799999311,0.0038179077387375943,-0.0080939644061237,0.00183259571459405
2.2407586574554443,-0.017946169499999942,-0.022731814699999964,-0.016749758199999576,0.001221730476396038,-0.0022907446432425677,0.0022907446432425538
2.2462828159332275,-0.017946169499999942,-0.022731814699999964,-0.016749758199999576,0.001221730476396038,-0.0022907446432425677,0.0022907446432425538
2.2516207695007324,-0.020338992099999953,0.007178467799999977,-0.02632104859999629,-0.0015271630954950335,0.0039706240482871025,0.00015271630954950127
2.256678581237793,-0.020338992099999953,0.007178467799999977,-0.02632104859999629,-0.0015271630954950335,0.0039706240482871025,0.00015271630954950127
2.2613983154296875,0.010767701700000132,0.019142580799999975,0.0011964113000004772,-0.0032070425005395753,0.0064140850010791645,0.0019853120241435512
2.2661449909210205,0.010767701700000132,0.019142580799999975,0.0011964113000004772,-0.0032070425005395753,0.0064140850010791645,0.0019853120241435512
2.2709763050079346,-0.0023928225999999553,0.027517459899999985,0.03110669380000175,-0.0016798794050445418,0.0051923545246831265,-0.0007635815477475202
2.275625705718994,-0.0023928225999999553,0.027517459899999985,0.03110669380000175,-0.0016798794050445418,0.0051923545246831265,-0.0007635815477475202
2.2804489135742188,0.050249274600000005,0.03469592769999996,-0.004785645199998356,0.0013744467859455323,0.0003054326190990164,-0.004428772976935606
2.2857372760772705,0.050249274600000005,0.03469592769999996,-0.004785645199998356,0.0013744467859455323,0.0003054326190990164,-0.004428772976935606
2.292264223098755,0.02632104860000012,0.01674975819999991,0.015553346899999099,0.004123340357836604,-0.005039638215133632,-0.005345070834232635
4.298929929733276,0.028713871200000074,0.0047856451999999106,0.0023928226000009545,-0.00045814892864851076,-0.0010690141668465297,-0.0001527163095495082
4.303759813308716,0.028713871200000074,0.0047856451999999106,0.0023928226000009545,-0.00045814892864851076,0.0003054326190990164,-0.0009162978572970215
4.30850887298584,0.04905286330000008,0.01316052429999992,-0.003589233899997879,0.0004581489286485177,0.0003054326190990164,-0.0009162978572970215
4.3132264614105225,0.04905286330000008,0.01316052429999992,-0.003589233899997879,0.0004581489286485177,0.0003054326190990164,-0.0009162978572970215
4.318061828613281,0.041874395500000106,0.022731814699999964,-0.01076770169999719,0.0007635815477475202,0.0001527163095495082,-0.0013744467859455323
4.3227903842926025,0.041874395500000106,0.022731814699999964,-0.01076770169999719,0.0007635815477475202,0.0001527163095495082,-0.0013744467859455323
4.327508211135864,0.01914258080000003,0.005982056499999944,-0.03469592769999963,-0.0010690141668465228,0.0035124751196385917,0.00015271630954950127
4.332170009613037,0.01914258080000003,0.005982056499999944,-0.03469592769999963,-0.0010690141668465228,0.0035124751196385917,0.00015271630954950127
4.336646795272827,0.009571290400000099,0.028713871199999907,0.015553346899999099,-0.0013744467859455323,0.0021380283336930456,0.001221730476396031
4.341214656829834,0.009571290400000099,0.028713871199999907,0.015553346899999099,-0.0013744467859455323,0.0021380283336930456,0.001221730476396031
4.34572696685791,0.003589233900000044,0.02512463729999992,-0.01914258080000053,0.0007635815477475202,-0.00045814892864851076,0.0
4.350385665893555,0.003589233900000044,0.02512463729999992,-0.01914258080000053,0.0007635815477475202,-0.00045814892864851076,0.0
4.355042219161987,-0.011964112999999943,-0.005982056500000055,-0.032303105099998675,0.000610865238198019,-0.00045814892864851076,-0.0021380283336930525
4.359613656997681,-0.011964112999999943,-0.005982056500000055,-0.032303105099998675,0.000610865238198019,-0.00045814892864851076,-0.0021380283336930525
4.364088773727417,-0.011964112999999943,-0.005982056500000055,-0.032303105099998675,0.0001527163095495082,-0.0015271630954950405,-0.0029016098814405727
4.368914365768433,0.009571290400000099,0.019142580799999975,-0.004785645199998356,0.0001527163095495082,-0.0015271630954950405,-0.0029016098814405727
4.373673439025879,0.009571290400000099,0.019142580799999975,-0.004785645199998356,0.0001527163095495082,0.0015271630954950266,-0.00030543261909900254
4.378445625305176,0.008374879100000066,0.007178467799999977,0.017946169500000053,-0.0007635815477475202,0.0015271630954950266,-0.00030543261909900254
4.382967233657837,0.008374879100000066,0.007178467799999977,0.017946169500000053,-0.0007635815477475202,0.0015271630954950266,-0.00030543261909900254
4.387477397918701,0.03110669380000003,0.01674975819999991,0.0,0.0009162978572970285,-0.002443460952792076,-0.001221730476396031
4.39194917678833,0.03110669380000003,0.01674975819999991,0.0,0.0009162978572970285,-0.002443460952792076,-0.001221730476396031
4.3964080810546875,0.055034919800000026,0.020338992099999897,0.015553346899999099,-0.0019853120241435512,0.0015271630954950266,0.00183259571459405
4.401166200637817,0.055034919800000026,0.020338992099999897,0.015553346899999099,-0.0019853120241435512,0.0015271630954950266,0.00183259571459405
4.405842542648315,0.00598205650000011,0.015553346899999987,0.026321048600003394,0.0009162978572970285,-0.001221730476396038,0.00015271630954950127
4.4105143547058105,0.00598205650000011,0.015553346899999987,0.026321048600003394,0.0009162978572970285,-0.001221730476396038,0.00015271630954950127
4.415184020996094,0.04905286330000008,0.027517459899999985,-0.01076770169999719,-0.0022907446432425538,0.0027488935718910645,0.0033597588100890835
4.420052528381348,0.04905286330000008,0.027517459899999985,-0.01076770169999719,-0.0022907446432425538,0.0027488935718910645,0.0033597588100890835
4.4247565269470215,0.03230310510000006,0.0035892338999999884,-0.007178467799999311,-0.0009162978572970215,0.000610865238198019,0.0009162978572970215
4.429324388504028,0.03230310510000006,0.0035892338999999884,-0.007178467799999311,-0.0009162978572970215,0.000610865238198019,0.0009162978572970215
4.434130430221558,0.03230310510000006,0.0035892338999999884,-0.007178467799999311,-0.001221730476396024,0.0015271630954950266,0.0003054326190990095
4.438966751098633,0.010767701700000132,0.019142580799999975,-0.02991028249999772,-0.001221730476396024,0.0015271630954950266,0.0003054326190990095
4.4437854290008545,0.010767701700000132,0.019142580799999975,-0.02991028249999772,0.0004581489286485177,0.0,-0.00045814892864851076
4.448519468307495,0.00598205650000011,0.017946169499999942,-0.039481572899997985,0.0004581489286485177,0.0,-0.00045814892864851076
4.453170299530029,0.00598205650000011,0.017946169499999942,-0.039481572899997985,0.0004581489286485177,0.0,-0.00045814892864851076
4.457820415496826,0.03469592770000002,0.0011964112999999221,0.0071784678000028634,-0.0036651914291880895,0.008093964406123713,0.0013744467859455323
4.462748050689697,0.03469592770000002,0.0011964112999999221,0.0071784678000028634,-0.0036651914291880895,0.008093964406123713,0.0013744467859455323
6.469406843185425,0.01914258080000003,0.04666004069999996,-0.0059820564999988335,-0.001221730476396024,-0.0033597588100890835,0.001221730476396031
6.4742889404296875,-0.02751745989999993,0.05024927460000006,0.014356935600002174,0.0004581489286485177,-0.0033597588100890835,-0.00183259571459405
6.4790661334991455,-0.02751745989999993,0.05024927460000006,0.014356935600002174,0.0004581489286485177,-0.0033597588100890835,-0.00183259571459405
6.4837892055511475,0.05623133110000006,-0.0023928226000000663,0.0011964113000004772,-0.00030543261909900254,0.0016798794050445348,-0.00030543261909900254
6.48832893371582,0.05623133110000006,-0.0023928226000000663,0.0011964113000004772,-0.00030543261909900254,0.0016798794050445348,-0.00030543261909900254
6.493166208267212,0.0741775006,-0.0023928226000000663,-0.020338992100001008,-0.0016798794050445418,0.009468411192069232,0.0022907446432425538
6.498122215270996,0.0741775006,-0.0023928226000000663,-0.020338992100001008,-0.0016798794050445418,0.009468411192069232,0.0022907446432425538
6.5027642250061035,0.04785645200000005,-0.007178467799999977,-0.009571290399996712,-0.006872233929727668,0.01725694297909393,0.0013744467859455323
6.5074052810668945,0.04785645200000005,-0.007178467799999977,-0.009571290399996712,-0.006872233929727668,0.01725694297909393,0.0013744467859455323
6.5126729011535645,0.07058826670000001,-0.02871387120000002,0.014356935600002174,0.0015271630954950405,0.000610865238198019,-0.003054326190990074
6.517786741256714,0.07058826670000001,-0.02871387120000002,0.014356935600002174,0.0015271630954950405,0.000610865238198019,-0.003054326190990074
6.52297568321228,0.04067798420000007,-0.010767701700000076,0.013160524300001697,-0.0013744467859455323,0.0033597588100890835,-0.0013744467859455323
6.527629613876343,0.04067798420000007,-0.010767701700000076,0.013160524300001697,-0.0013744467859455323,0.0033597588100890835,-0.0013744467859455323
6.532487869262695,0.04905286330000008,0.031106693799999974,0.028713871200000796,-0.0038179077387375943,0.0035124751196385917,0.0029016098814405727
6.537181377410889,0.04905286330000008,0.031106693799999974,0.028713871200000796,-0.0038179077387375943,0.0035124751196385917,0.0029016098814405727
6.541924476623535,0.06460621020000007,0.014356935599999954,0.0,-0.0021380283336930525,-0.003054326190990067,0.0032070425005395822
6.5468103885650635,0.06460621020000007,0.014356935599999954,0.0,-0.0021380283336930525,-0.003054326190990067,0.0032070425005395822
6.551474094390869,0.029910282500000107,0.01316052429999992,-0.0011964113000004772,0.001221730476396038,-0.007330382858376186,0.00442877297693561
6.5563225746154785,0.029910282500000107,0.01316052429999992,-0.0011964113000004772,0.001221730476396038,-0.007330382858376186,0.00442877297693561
6.560906171798706,0.029910282500000107,0.052642097200000015,-0.007178467799999311,-0.0019853120241435512,-0.003665191429188086,0.00519235452468313
6.565479278564453,0.021535403400000097,0.052642097200000015,-0.007178467799999311,-0.0019853120241435512,-0.003665191429188086,0.00519235452468313
6.570234298706055,0.021535403400000097,0.052642097200000015,-0.007178467799999311,-0.0015271630954950335,-0.00045814892864851076,-0.0001527163095495082
6.575437784194946,0.011964113000000054,0.020338992099999897,0.032303105099998675,-0.0015271630954950335,-0.00045814892864851076,-0.0001527163095495082
6.580717325210571,0.011964113000000054,0.020338992099999897,0.032303105099998675,-0.0032070425005395753,0.01069014166846527,-0.003054326190990074
6.585443496704102,0.025124637300000086,-0.009571290400000043,-0.01914258080000053,-0.0032070425005395753,0.01069014166846527,-0.003054326190990074
6.590286016464233,0.025124637300000086,-0.009571290400000043,-0.01914258080000053,-0.003970624048287099,0.014966198335851374,-0.00183259571459405
6.595618009567261,0.03469592770000002,0.019142580799999975,0.0011964113000004772,-0.003970624048287099,0.014966198335851374,-0.00183259571459405
6.601345539093018,0.09571290400000004,-0.005982056500000055,0.0011964113000004772,-0.00335975881008908,0.018325957145940458,0.000610865238198012
6.60611367225647,0.09571290400000004,-0.005982056500000055,0.0011964113000004772,-0.00335975881008908,0.018325957145940458,0.000610865238198012
6.612136363983154,0.08853443620000007,-0.02871387120000002,-0.05503491980000064,-0.0041233403578366,0.013133602621257318,0.0022907446432425538
6.617707014083862,0.08853443620000007,-0.02871387120000002,-0.05503491980000064,-0.0041233403578366,0.013133602621257318,0.0022907446432425538
6.62258505821228,0.0741775006,-0.031106693799999974,-0.051445685899999205,0.00183259571459405,-0.0045814892864851214,-0.001221730476396031
6.628116607666016,0.0741775006,-0.031106693799999974,-0.051445685899999205,0.00183259571459405,-0.0045814892864851214,-0.001221730476396031
6.6334874629974365,0.020338992100000064,-0.004785645200000022,-0.05742774239999804,0.00183259571459405,-0.0080939644061237,0.0
6.638426780700684,0.020338992100000064,-0.004785645200000022,-0.05742774239999804,0.00183259571459405,-0.0080939644061237,0.0
6.643062114715576,0.06939185539999998,0.028713871199999907,0.04187439550000249,-0.00045814892864851076,-0.006414085001079151,0.00183259571459405
6.647850513458252,0.06939185539999998,0.028713871199999907,0.04187439550000249,-0.00045814892864851076,-0.006414085001079151,0.00183259571459405
6.652550458908081,0.015553346900000042,0.00837487910000001,-0.013160524299998144,-0.0038179077387375943,0.0,0.0019853120241435512
6.657878398895264,0.015553346900000042,0.00837487910000001,-0.013160524299998144,-0.0038179077387375943,0.0,0.0019853120241435512
6.663175582885742,0.033499516400000096,0.06221338760000006,0.022731814700001962,0.0007635815477475202,-0.0045814892864851214,-0.003054326190990074
6.668639659881592,0.033499516400000096,0.06221338760000006,0.022731814700001962,0.0007635815477475202,-0.0045814892864851214,-0.003054326190990074
6.67391562461853,-0.06939185539999992,0.05742774240000004,0.0,0.0015271630954950405,0.00045814892864851076,-0.005650503453331644
6.679675817489624,-0.06939185539999992,0.05742774240000004,0.0,0.0007635815477475202,0.007788531787024697,-0.0051923545246831335
6.685073614120483,0.02751745990000004,0.01674975819999991,0.056231331100001114,0.0007635815477475202,0.007788531787024697,-0.0051923545246831335
6.690244197845459,0.02751745990000004,0.01674975819999991,0.056231331100001114,-0.0021380283336930525,0.008246680715673207,-0.0010690141668465228
6.695151329040527,0.0777667345000001,0.03828516159999995,-0.004785645199998356,-0.0021380283336930525,0.008246680715673207,-0.0010690141668465228
6.700250625610352,0.0777667345000001,0.03828516159999995,-0.004785645199998356,-0.00015271630954950127,0.0021380283336930456,-0.0009162978572970215
6.704983711242676,0.05264209720000007,0.005982056499999944,-0.01914258080000053,-0.00015271630954950127,0.0021380283336930456,-0.0009162978572970215
6.709757328033447,0.05264209720000007,0.005982056499999944,-0.01914258080000053,-0.00015271630954950127,-0.005039638215133632,-0.0016798794050445418
6.7146077156066895,0.07058826670000001,-0.03349951640000004,-0.009571290399996712,0.004428772976935613,-0.005039638215133632,-0.0016798794050445418
6.719648122787476,0.07058826670000001,-0.03349951640000004,-0.009571290399996712,0.004428772976935613,-0.005039638215133632,0.0015271630954950405
6.724440336227417,0.06580262149999999,0.0035892338999999884,0.022731814700001962,0.0001527163095495082,-0.006108652381980162,0.0015271630954950405
6.729294300079346,0.06580262149999999,0.0035892338999999884,0.022731814700001962,0.0001527163095495082,-0.006108652381980162,0.0015271630954950405
6.734222650527954,0.04307080680000003,0.00837487910000001,0.0035892339000014317,0.0013744467859455323,-0.00626136869152967,0.0029016098814405727
6.7396955490112305,0.04307080680000003,0.00837487910000001,0.0035892339000014317,0.0010690141668465297,-0.008399397025222716,0.001221730476396031
6.744744062423706,0.08733802490000003,0.007178467799999977,0.009571290400003818,0.0010690141668465297,-0.008399397025222716,0.001221730476396031
6.750301837921143,0.08733802490000003,0.007178467799999977,0.0,-0.0021380283336930525,-0.0015271630954950405,0.0009162978572970215
6.755393028259277,-0.013160524299999976,0.04187439549999994,0.0,-0.0021380283336930525,-0.0015271630954950405,0.0009162978572970215
6.760758876800537,0.01435693560000012,0.02512463729999992,-0.0059820564999988335,0.001221730476396038,-0.0013744467859455323,-0.004276056667386105
6.766217470169067,0.01435693560000012,0.02512463729999992,-0.0059820564999988335,0.001221730476396038,-0.0013744467859455323,-0.004276056667386105
6.7713072299957275,0.058624153700000015,0.022731814699999964,-0.02632104859999629,-0.0009162978572970215,0.005650503453331637,-0.0001527163095495082
6.776420831680298,0.058624153700000015,0.022731814699999964,-0.02632104859999629,-0.0009162978572970215,0.005650503453331637,-0.0001527163095495082
6.781497478485107,0.05264209720000007,0.02153540339999993,0.0071784678000028634,-0.0010690141668465228,0.007941248096574205,-0.0019853120241435512
6.785963296890259,0.05264209720000007,0.02153540339999993,0.0071784678000028634,-0.0010690141668465228,0.007941248096574205,-0.0019853120241435512
6.790515899658203,0.05264209720000007,0.02153540339999993,-0.013160524299998144,0.0021380283336930525,0.004123340357836611,-0.0021380283336930525
6.794975996017456,0.037088750300000084,0.0011964112999999221,-0.013160524299998144,0.0021380283336930525,0.004123340357836611,-0.0021380283336930525
6.79963493347168,0.037088750300000084,0.0011964112999999221,-0.013160524299998144,0.0021380283336930525,-0.00030543261909900254,0.0009162978572970215
6.804080009460449,0.041874395500000106,-0.04067798420000002,-0.014356935599998621,0.0010690141668465297,-0.00030543261909900254,0.0009162978572970215
6.808499336242676,0.041874395500000106,-0.04067798420000002,-0.014356935599998621,0.0010690141668465297,-0.00030543261909900254,0.0009162978572970215
6.813020706176758,0.08614161360000011,-0.027517459899999985,0.0035892339000014317,0.0016798794050445418,-0.00626136869152967,0.0029016098814405727
6.817516088485718,0.08614161360000011,-0.027517459899999985,0.0035892339000014317,0.0016798794050445418,-0.00626136869152967,0.0029016098814405727
6.822032928466797,0.04067798420000007,-0.015553346899999987,-0.0023928226000009545,-0.00030543261909900254,-0.0038179077387375943,0.004886921905584124
6.826522350311279,0.04067798420000007,-0.015553346899999987,-0.0023928226000009545,-0.00030543261909900254,-0.0038179077387375943,0.004886921905584124
6.830951452255249,0.04426721810000006,0.02153540339999993,-0.02273181469999841,-0.0007635815477475202,-0.006872233929727661,0.0045814892864851145
6.835370779037476,0.04426721810000006,0.02153540339999993,-0.02273181469999841,-0.0007635815477475202,-0.006872233929727661,0.0045814892864851145
6.839862823486328,0.04426721810000006,0.02153540339999993,-0.02273181469999841,0.0029016098814405797,-0.01069014166846527,-0.000610865238198012
6.844285488128662,0.045463629400000094,-0.005982056500000055,-0.016749758199999576,0.0029016098814405797,-0.01069014166846527,-0.000610865238198012
6.848855018615723,0.045463629400000094,-0.005982056500000055,-0.016749758199999576,0.0029016098814405797,-0.01069014166846527,-0.000610865238198012
6.8533244132995605,0.04426721810000006,0.00837487910000001,0.0011964113000004772,-0.0025961772623415633,0.001221730476396038,0.0022907446432425538
6.85777735710144,0.04426721810000006,0.00837487910000001,0.0011964113000004772,-0.0025961772623415633,0.001221730476396038,0.0022907446432425538
6.862245559692383,0.029910282500000107,0.028713871199999907,0.02392822600000244,-0.0015271630954950335,0.0013744467859455323,0.0010690141668465297
6.866842985153198,0.029910282500000107,0.028713871199999907,0.02392822600000244,-0.0015271630954950335,0.0013744467859455323,0.0010690141668465297
6.871522665023804,0.11126625090000003,-0.004785645200000022,-0.0023928226000009545,0.0009162978572970285,0.0045814892864851214,0.0007635815477475202
6.875955581665039,0.11126625090000003,-0.004785645200000022,-0.0023928226000009545,0.0009162978572970285,0.0045814892864851214,0.0007635815477475202
6.880502223968506,0.11126625090000003,0.007178467799999977,-0.004785645199998356,-0.00030543261909900254,0.0070249502392771696,-0.000610865238198012
6.884918689727783,0.050249274600000005,0.007178467799999977,-0.004785645199998356,-0.00030543261909900254,0.0070249502392771696,-0.000610865238198012
6.889361619949341,0.050249274600000005,0.007178467799999977,-0.004785645199998356,-0.00030543261909900254,0.0070249502392771696,0.0007635815477475202
6.893777847290039,0.09571290400000004,-0.019142580799999975,0.0,0.000610865238198019,0.0,0.0007635815477475202
6.898336410522461,0.09571290400000004,-0.019142580799999975,0.0,0.000610865238198019,0.0,0.0007635815477475202
6.902859926223755,0.07058826670000001,-0.031106693799999974,-0.011964112999997667,0.003054326190990081,-0.005955936072430654,-0.0015271630954950405
6.9072792530059814,0.07058826670000001,-0.031106693799999974,-0.011964112999997667,0.003054326190990081,-0.005955936072430654,-0.0015271630954950405
6.911649465560913,0.05144568590000004,-0.03469592769999996,-0.03469592769999963,-0.002443460952792055,-0.00030543261909900254,0.0013744467859455323
6.916010856628418,0.05144568590000004,-0.03469592769999996,-0.03469592769999963,-0.002443460952792055,-0.00030543261909900254,0.0013744467859455323
6.920461177825928,0.05144568590000004,0.011964112999999998,0.00837487910000334,-0.0080939644061237,0.006872233929727675,0.008246680715673207
6.92487645149231,0.04905286330000008,0.011964112999999998,0.00837487910000334,-0.0080939644061237,0.006872233929727675,0.008246680715673207
6.929363489151001,0.04905286330000008,0.011964112999999998,0.00837487910000334,-0.0080939644061237,-0.0015271630954950405,0.0035124751196385848
6.933831214904785,0.0777667345000001,0.019142580799999975,-0.01076770169999719,-0.0029016098814405727,-0.0015271630954950405,0.0035124751196385848
6.938287258148193,0.0777667345000001,0.019142580799999975,-0.01076770169999719,-0.0029016098814405727,-0.0015271630954950405,0.0035124751196385848
6.942724704742432,0.038285161600000006,0.005982056499999944,-0.031106693799998197,-0.000610865238198012,-0.0007635815477475272,0.0027488935718910715
6.947187662124634,0.038285161600000006,0.005982056499999944,-0.031106693799998197,-0.000610865238198012,-0.0007635815477475272,0.0027488935718910715
6.951838970184326,-0.010767701699999965,0.044267218099999894,0.028713871200000796,-0.001221730476396024,-0.003054326190990067,0.0021380283336930525
6.956568002700806,-0.010767701699999965,0.044267218099999894,0.028713871200000796,-0.001221730476396024,-0.003054326190990067,0.0021380283336930525
8.965214252471924,-0.09451649269999995,-0.07776673449999993,-0.04426721809999634,-0.0013744467859455323,0.004886921905584124,-0.00045814892864851076
8.972190380096436,0.1423729447,-0.0681954441,0.017946169500000053,-0.002443460952792055,0.0157297798835989,-0.00045814892864851076
8.979573726654053,0.16151552549999998,-0.09451649269999995,-0.03349951639999915,-0.0007635815477475202,0.015424347264499885,-0.001221730476396031
8.985395431518555,0.16151552549999998,-0.09451649269999995,-0.03349951639999915,0.0007635815477475202,0.009162978572970229,0.00015271630954950127
8.99260139465332,0.1256231865000001,-0.05144568589999998,0.0,0.0007635815477475202,0.009162978572970229,0.00015271630954950127
9.000041246414185,0.055034919800000026,-0.06221338759999995,0.01196411300000122,0.0029016098814405797,-0.006566801310628659,0.0015271630954950405
9.006273746490479,0.055034919800000026,-0.06221338759999995,0.01196411300000122,0.005955936072430654,-0.021227567027381045,0.004734205596034619
9.0126473903656,0.06939185539999998,-0.09092725879999997,-0.0023928226000009545,0.005955936072430654,-0.021227567027381045,0.004734205596034619
9.018394231796265,0.02751745990000004,-0.08494520229999991,-0.007178467799999311,0.0035124751196385917,-0.013897184169004859,0.0054977871437821395
9.024904251098633,0.02751745990000004,-0.08494520229999991,-0.007178467799999311,0.0,-0.00748309916792568,0.0022907446432425538
9.031729698181152,-0.03349951639999993,-0.07537391189999998,-0.025124637299999364,0.0,-0.00748309916792568,0.0022907446432425538
9.03775405883789,0.06340979890000004,-0.06699903279999997,0.04187439550000249,-0.00335975881008908,0.006566801310628659,0.003054326190990081
9.043496131896973,0.06340979890000004,-0.06699903279999997,0.04187439550000249,-0.00335975881008908,0.006566801310628659,0.003054326190990081
9.048665285110474,0.08733802490000003,-0.04905286330000003,-0.01914258080000053,-0.00335975881008908,0.009468411192069232,-0.0033597588100890835
9.05357837677002,0.08733802490000003,-0.04905286330000003,-0.01914258080000053,-0.00335975881008908,0.009468411192069232,-0.0033597588100890835
9.058497905731201,0.03469592770000002,-0.0681954441,0.025124637300002917,-0.0021380283336930525,0.011911872144861307,-0.007177666548826678
9.063803911209106,0.03469592770000002,-0.0681954441,0.025124637300002917,-0.0021380283336930525,0.011911872144861307,-0.007177666548826678
9.06877088546753,0.09092725880000013,-0.1076770170000001,-0.021535403400001485,-0.00045814892864851076,0.007941248096574205,-0.004123340357836597
9.073673725128174,0.09092725880000013,-0.1076770170000001,-0.021535403400001485,-0.00045814892864851076,0.007941248096574205,-0.004123340357836597
9.078769207000732,0.1136590735000001,-0.09810572659999994,-0.02991028249999772,-0.0015271630954950335,0.006872233929727675,0.0016798794050445418
9.08377981185913,0.1136590735000001,-0.09810572659999994,-0.02991028249999772,-0.0015271630954950335,0.006872233929727675,0.0016798794050445418
9.088770866394043,0.09930213790000003,-0.09332008139999992,-0.02991028249999772,-0.0009162978572970215,0.0016798794050445348,0.0027488935718910715
9.093715906143188,0.09930213790000003,-0.09332008139999992,-0.02991028249999772,-0.0009162978572970215,0.0016798794050445348,0.0027488935718910715
9.098740100860596,0.08255237970000012,-0.07657032320000001,-0.0011964113000004772,0.0045814892864851214,-0.008857545953871226,0.000610865238198012
9.103639602661133,0.08255237970000012,-0.07657032320000001,-0.0011964113000004772,0.0045814892864851214,-0.008857545953871226,0.000610865238198012
9.108593225479126,0.07058826670000001,-0.09092725879999997,-0.0011964113000004772,0.0033597588100890835,-0.014508049407202864,-0.0010690141668465228
9.113713026046753,0.07058826670000001,-0.09092725879999997,-0.0011964113000004772,0.0033597588100890835,-0.014508049407202864,-0.0010690141668465228
9.118650674819946,-0.009571290399999988,-0.1004985491999999,-0.0059820564999988335,-0.0021380283336930525,-0.0029016098814405727,-0.0019853120241435512
9.123998403549194,-0.009571290399999988,-0.1004985491999999,-0.0059820564999988335,-0.0021380283336930525,-0.0029016098814405727,-0.0019853120241435512
9.129660367965698,0.0777667345000001,-0.0681954441,0.02751745990000387,-0.0019853120241435512,0.0058032197628811455,-0.0009162978572970215
9.135221242904663,0.0777667345000001,-0.0681954441,0.02751745990000387,-0.0029016098814405727,0.007177666548826678,0.0003054326190990095
9.141436100006104,0.1256231865000001,-0.06221338759999995,0.0,-0.0029016098814405727,0.007177666548826678,0.0003054326190990095
11.150408744812012,0.08733802490000003,-0.08135596839999992,-0.0011964113000004772,0.0001527163095495082,0.0032070425005395753,-0.0016798794050445418
11.156634330749512,0.04067798420000007,-0.06699903279999997,-0.020338992100001008,-0.00045814892864851076,0.001221730476396038,-0.0013744467859455323
11.162493705749512,0.04067798420000007,-0.06699903279999997,-0.020338992100001008,0.0001527163095495082,0.0,0.0029016098814405727
11.169152975082397,0.10648060570000012,-0.05982056499999999,0.009571290400003818,0.0001527163095495082,0.0,0.0029016098814405727
11.176409244537354,0.09332008140000009,-0.06580262149999994,0.016749758199999576,-0.0009162978572970215,-0.000610865238198019,0.0039706240482871025
11.184182167053223,-0.0023928225999999553,-0.06221338759999995,-0.02273181469999841,0.00183259571459405,-0.005650503453331651,-0.0007635815477475202
11.190944910049438,-0.0023928225999999553,-0.06221338759999995,-0.02273181469999841,0.00183259571459405,-0.005650503453331651,-0.0007635815477475202
11.195930242538452,0.046660040700000016,-0.08973084749999993,-0.039481572899997985,0.004428772976935613,-0.006872233929727661,-0.002443460952792062
11.200647354125977,0.046660040700000016,-0.08973084749999993,-0.039481572899997985,0.004428772976935613,-0.006872233929727661,-0.002443460952792062
11.205341577529907,0.0622133876,-0.0885344361999999,0.009571290400003818,0.0009162978572970285,0.0045814892864851214,-0.00030543261909900254
11.209995985031128,0.0622133876,-0.0885344361999999,0.009571290400003818,0.0009162978572970285,0.0045814892864851214,-0.00030543261909900254
11.214714527130127,0.1016949605000001,-0.08255237969999996,-0.04785645199999777,0.0021380283336930525,0.003054326190990081,-0.003665191429188093
11.219378471374512,0.1016949605000001,-0.08255237969999996,-0.04785645199999777,0.0021380283336930525,0.003054326190990081,-0.003665191429188093
11.224082469940186,0.09810572660000011,-0.07537391189999998,-0.007178467799999311,-0.0021380283336930525,0.007330382858376186,-0.0007635815477475202
11.228704690933228,0.09810572660000011,-0.07537391189999998,-0.007178467799999311,-0.0021380283336930525,0.007330382858376186,-0.0007635815477475202
11.233284711837769,0.06340979890000004,-0.08255237969999996,-0.04067798419999846,-0.002443460952792055,0.0058032197628811455,-0.00030543261909900254
11.237908124923706,0.06340979890000004,-0.08255237969999996,-0.04067798419999846,-0.002443460952792055,0.0058032197628811455,-0.00030543261909900254
11.242471933364868,0.06340979890000004,-0.08255237969999996,-0.04067798419999846,-0.00045814892864851076,0.001221730476396038,0.00183259571459405
11.2470862865448,0.046660040700000016,-0.05144568589999998,-0.01076770169999719,-0.00045814892864851076,0.001221730476396038,0.00183259571459405
11.251680135726929,0.046660040700000016,-0.05144568589999998,-0.01076770169999719,-0.00045814892864851076,0.001221730476396038,0.00183259571459405
11.256119012832642,0.046660040700000016,-0.023928225999999997,-0.0023928226000009545,0.0,-0.0033597588100890835,0.003665191429188093
11.260848045349121,0.046660040700000016,-0.023928225999999997,-0.0023928226000009545,0.0,-0.0033597588100890835,0.003665191429188093
11.265245914459229,0.06939185539999998,-0.04546362940000004,0.014356935600002174,0.003665191429188093,-0.009162978572970229,0.0
11.269773483276367,0.06939185539999998,-0.04546362940000004,0.014356935600002174,0.003665191429188093,-0.009162978572970229,0.0
11.27432656288147,0.06101697630000008,-0.06340979889999998,-0.05024927459999873,0.003665191429188093,-0.007330382858376186,0.0
11.278882503509521,0.06101697630000008,-0.06340979889999998,-0.05024927459999873,0.003665191429188093,-0.007330382858376186,0.0
11.283364534378052,0.07058826670000001,-0.09810572659999994,0.005982056500002386,0.001221730476396038,-0.00519235452468314,-0.00045814892864851076
11.288044691085815,0.07058826670000001,-0.09810572659999994,0.005982056500002386,0.001221730476396038,-0.00519235452468314,-0.00045814892864851076
11.292924642562866,0.07058826670000001,-0.1004985491999999,-0.023928225999998887,0.000610865238198019,0.0029016098814405727,0.0003054326190990095
11.29760456085205,0.08733802490000003,-0.1004985491999999,-0.023928225999998887,0.000610865238198019,0.0029016098814405727,0.0003054326190990095
11.302117824554443,0.08733802490000003,-0.1004985491999999,-0.023928225999998887,-0.0025961772623415633,0.008399397025222716,0.001221730476396031
11.306645631790161,0.0622133876,-0.0801595571,0.03828516160000106,-0.0025961772623415633,0.008399397025222716,0.001221730476396031
11.311419010162354,0.0622133876,-0.0801595571,0.03828516160000106,-0.0025961772623415633,0.008399397025222716,0.001221730476396031
11.316274881362915,0.08374879100000004,-0.08733802489999998,0.0035892339000014317,-0.00045814892864851076,0.0022907446432425538,-0.00030543261909900254
11.320933103561401,0.08374879100000004,-0.08733802489999998,0.0035892339000014317,-0.00045814892864851076,0.0022907446432425538,-0.00030543261909900254
11.32552695274353,0.06340979890000004,-0.0885344361999999,0.013160524300001697,0.0010690141668465297,-0.0013744467859455323,-0.0022907446432425538
11.33003830909729,0.06340979890000004,-0.0885344361999999,0.013160524300001697,0.0010690141668465297,-0.0013744467859455323,-0.0022907446432425538
11.334526062011719,0.08255237970000012,-0.04067798420000002,0.032303105099998675,0.005039638215133632,-0.014813482026301866,-0.0019853120241435512
11.339062929153442,0.08255237970000012,-0.04067798420000002,0.032303105099998675,0.005039638215133632,-0.014813482026301866,-0.0019853120241435512
11.343676805496216,0.08853443620000007,-0.05982056499999999,0.05742774240000159,-0.00030543261909900254,-0.010384709049366253,0.004734205596034619
11.34818434715271,0.08853443620000007,-0.05982056499999999,0.05742774240000159,-0.00030543261909900254,-0.010384709049366253,0.004734205596034619
11.352611303329468,0.08853443620000007,-0.05982056499999999,0.05742774240000159,0.005345070834232635,-0.0198531202414355,0.0010690141668465297
11.357115030288696,0.020338992100000064,-0.05383850849999994,-0.058624153699998516,0.005345070834232635,-0.0198531202414355,0.0010690141668465297
11.361652612686157,0.020338992100000064,-0.05383850849999994,-0.058624153699998516,0.005345070834232635,-0.0198531202414355,0.0010690141668465297
11.365997314453125,0.015553346900000042,-0.05144568589999998,-0.011964112999997667,0.0016798794050445418,-0.017715091907742453,0.0039706240482871025
11.370437622070312,0.015553346900000042,-0.05144568589999998,-0.011964112999997667,0.0016798794050445418,-0.017715091907742453,0.0039706240482871025
11.37491226196289,0.03230310510000006,-0.06340979889999998,0.004785645200001909,0.0039706240482871025,-0.01863138976503946,0.0
11.379510879516602,0.03230310510000006,-0.06340979889999998,0.004785645200001909,0.0039706240482871025,-0.01863138976503946,0.0
11.383946895599365,0.00598205650000011,-0.057427742399999926,-0.020338992100001008,-0.0009162978572970215,-0.0033597588100890835,0.0016798794050445418
11.388413429260254,0.00598205650000011,-0.057427742399999926,-0.020338992100001008,-0.0009162978572970215,-0.0033597588100890835,0.0016798794050445418
11.392856359481812,0.00598205650000011,-0.052642097200000015,-0.0011964113000004772,-0.0036651914291880895,0.01069014166846527,0.0029016098814405727
11.397303819656372,0.05264209720000007,-0.052642097200000015,-0.0011964113000004772,-0.0036651914291880895,0.01069014166846527,0.0029016098814405727
11.401855707168579,0.05264209720000007,-0.052642097200000015,-0.0011964113000004772,-0.0036651914291880895,0.015271630954950391,-0.005039638215133625
11.406292200088501,0.023928226000000052,-0.06221338759999995,-0.06939185539999926,-0.0019853120241435512,0.015271630954950391,-0.005039638215133625
11.410731315612793,0.023928226000000052,-0.06221338759999995,-0.06939185539999926,-0.0019853120241435512,0.015271630954950391,-0.005039638215133625
11.415168523788452,0.05742774240000009,-0.10528419440000003,-0.04426721809999634,-0.0016798794050445418,0.02168571595602954,-0.005650503453331644
11.419662714004517,0.05742774240000009,-0.10528419440000003,-0.04426721809999634,-0.0016798794050445418,0.02168571595602954,-0.005650503453331644
11.424150466918945,0.10289137180000002,-0.13399806560000005,-0.0011964113000004772,0.0010690141668465297,0.024129176908821603,-0.0051923545246831335
11.428718328475952,0.10289137180000002,-0.13399806560000005,-0.0011964113000004772,0.0010690141668465297,0.024129176908821603,-0.0051923545246831335
11.43325400352478,0.18544375149999998,-0.13399806560000005,-0.05264209719999968,0.0009162978572970285,0.010842857978014778,0.0
11.437612295150757,0.18544375149999998,-0.13399806560000005,-0.05264209719999968,0.0009162978572970285,0.010842857978014778,0.0
11.442054510116577,0.18544375149999998,-0.13399806560000005,-0.05264209719999968,0.0013744467859455323,-0.0038179077387375943,0.0003054326190990095
11.446682214736938,0.04307080680000003,-0.044267218100000005,-0.02991028249999772,0.0013744467859455323,-0.0038179077387375943,0.0003054326190990095
11.45113730430603,0.04307080680000003,-0.044267218100000005,-0.02991028249999772,0.0013744467859455323,-0.0038179077387375943,0.0003054326190990095
11.455633878707886,0.1184447187,-0.09810572659999994,-0.01914258080000053,-0.0013744467859455323,-0.01328631893080684,0.008246680715673207
11.46017599105835,0.1184447187,-0.09810572659999994,-0.01914258080000053,-0.0013744467859455323,-0.01328631893080684,0.008246680715673207
11.464634418487549,0.06819544410000006,-0.07058826669999996,-0.028713871199997243,0.0022907446432425607,-0.02443460952792062,0.0054977871437821395
11.469096660614014,0.06819544410000006,-0.07058826669999996,-0.028713871199997243,0.0022907446432425607,-0.02443460952792062,0.0054977871437821395
11.473526954650879,0.02632104860000012,-0.044267218100000005,0.0035892339000014317,0.0007635815477475202,-0.014966198335851374,0.004276056667386105
11.478393077850342,0.02632104860000012,-0.044267218100000005,0.0035892339000014317,0.0007635815477475202,-0.014966198335851374,0.004276056667386105
11.482965230941772,-0.007178467799999977,-0.04067798420000002,0.005982056500002386,-0.001832595714594043,-0.008399397025222716,0.0039706240482871025
11.487424612045288,-0.007178467799999977,-0.04067798420000002,0.005982056500002386,-0.001832595714594043,-0.008399397025222716,0.0039706240482871025
11.491877794265747,-0.007178467799999977,-0.04067798420000002,0.005982056500002386,-0.0027488935718910645,0.0025961772623415563,0.005039638215133629
11.496303081512451,0.021535403400000097,-0.02991028250000005,0.009571290400003818,-0.0027488935718910645,0.0025961772623415563,0.005039638215133629
11.50079894065857,0.021535403400000097,-0.02991028250000005,0.009571290400003818,-0.0027488935718910645,0.0025961772623415563,0.005039638215133629
11.505257844924927,0.0622133876,-0.06340979889999998,-0.02632104859999629,0.0,0.008704829644321718,-0.0001527163095495082
11.509725570678711,0.0622133876,-0.06340979889999998,-0.02632104859999629,0.0,0.008704829644321718,-0.0001527163095495082
11.514148235321045,0.03469592770000002,-0.06699903279999997,-0.014356935599998621,0.0021380283336930525,0.005039638215133632,-0.0051923545246831335
11.518579721450806,0.03469592770000002,-0.06699903279999997,-0.014356935599998621,0.0021380283336930525,0.005039638215133632,-0.0051923545246831335
11.523138046264648,0.07537391190000003,-0.12681959780000007,-0.027517459899996766,0.000610865238198019,0.0070249502392771696,-0.003665191429188093
11.52777647972107,0.07537391190000003,-0.12681959780000007,-0.027517459899996766,0.000610865238198019,0.0070249502392771696,-0.003665191429188093
11.53222370147705,0.07537391190000003,-0.12681959780000007,-0.027517459899996766,-0.00335975881008908,0.009315694882519723,0.0022907446432425538
11.536722421646118,0.12801600910000005,-0.14117653340000003,-0.020338992100001008,-0.00335975881008908,0.009315694882519723,0.0022907446432425538
11.54155158996582,0.12801600910000005,-0.14117653340000003,-0.020338992100001008,-0.00335975881008908,0.004886921905584124,0.0035124751196385848
13.549113750457764,-0.004785645199999966,-0.1196411300000001,-0.016749758199999576,0.0004581489286485177,0.004123340357836611,0.0003054326190990095
13.55509901046753,-0.004785645199999966,-0.1196411300000001,-0.016749758199999576,0.0004581489286485177,0.004123340357836611,0.0003054326190990095
13.561054706573486,-0.055034919799999915,-0.11605189610000011,-0.008374879099999788,0.0007635815477475202,0.001221730476396038,-0.0013744467859455323
13.566842794418335,-0.055034919799999915,-0.11605189610000011,-0.008374879099999788,0.0007635815477475202,0.001221730476396038,-0.0013744467859455323
13.572513341903687,-0.007178467799999977,-0.1244267752,-0.009571290399996712,0.0016798794050445418,-0.001221730476396038,0.0009162978572970215
13.578446626663208,-0.007178467799999977,-0.1244267752,-0.009571290399996712,0.0007635815477475202,-0.00030543261909900254,0.0022907446432425538
13.584009170532227,0.05742774240000009,-0.1244267752,-0.04067798419999846,0.0007635815477475202,-0.00030543261909900254,0.0022907446432425538
13.589401483535767,-0.05024927459999995,-0.0921236701,-0.035892339000000106,-0.000610865238198012,-0.00045814892864851076,0.001221730476396031
13.594907999038696,-0.05024927459999995,-0.0921236701,-0.035892339000000106,-0.000610865238198012,-0.00045814892864851076,0.001221730476396031
13.60029125213623,-0.05982056499999994,-0.10648060570000006,-0.0059820564999988335,-0.0025961772623415633,-0.0033597588100890835,0.0025961772623415633
13.605515718460083,-0.05982056499999994,-0.10648060570000006,-0.0059820564999988335,-0.0025961772623415633,-0.0033597588100890835,0.0025961772623415633
13.611210107803345,-0.014356935599999954,-0.14715858990000008,-0.009571290399996712,0.0,-0.003665191429188086,0.0029016098814405727
13.616182565689087,-0.014356935599999954,-0.14715858990000008,-0.009571290399996712,0.0,-0.003665191429188086,0.0029016098814405727
13.620908498764038,-0.04187439549999994,-0.12921242040000003,-0.03349951639999915,0.0001527163095495082,0.001832595714594043,-0.00030543261909900254
13.625521898269653,-0.04187439549999994,-0.12921242040000003,-0.03349951639999915,0.0001527163095495082,0.001832595714594043,-0.00030543261909900254
13.630124568939209,-0.016749758199999965,-0.11605189610000011,-0.021535403400001485,0.002443460952792062,-0.003054326190990067,-0.0051923545246831335
13.634740352630615,-0.016749758199999965,-0.11605189610000011,-0.021535403400001485,0.002443460952792062,-0.003054326190990067,-0.0051923545246831335
13.639511346817017,-0.04546362939999993,-0.13280165430000002,0.032303105099998675,0.0009162978572970285,0.0003054326190990164,-0.003665191429188093
13.644237756729126,-0.04546362939999993,-0.13280165430000002,0.032303105099998675,0.0009162978572970285,0.0003054326190990164,-0.003665191429188093
13.648979425430298,-0.04546362939999993,-0.11485548480000007,-0.02991028249999772,-0.0010690141668465228,0.00473420559603463,0.000610865238198012
13.653568029403687,-0.04307080679999992,-0.11485548480000007,-0.02991028249999772,-0.0010690141668465228,0.00473420559603463,0.000610865238198012
13.658157587051392,-0.04307080679999992,-0.11485548480000007,-0.02991028249999772,0.0032070425005395822,-0.004276056667386105,-0.0021380283336930525
13.662652969360352,-0.04067798419999996,-0.11365907350000004,-0.03349951639999915,0.0032070425005395822,-0.004276056667386105,-0.0021380283336930525
13.667105197906494,-0.04067798419999996,-0.11365907350000004,-0.03349951639999915,0.0032070425005395822,-0.004276056667386105,-0.0021380283336930525
13.671591520309448,-0.017946169499999942,-0.12921242040000003,-0.021535403400001485,0.0045814892864851214,-0.005955936072430654,-0.003054326190990074
13.67627215385437,-0.017946169499999942,-0.12921242040000003,-0.021535403400001485,0.0045814892864851214,-0.005955936072430654,-0.003054326190990074
13.681077241897583,-0.0023928225999999553,-0.1399801221,-0.01914258080000053,0.0029016098814405797,-0.004123340357836597,-0.00030543261909900254
13.685672760009766,-0.0023928225999999553,-0.1399801221,-0.01914258080000053,0.0029016098814405797,-0.004123340357836597,-0.00030543261909900254
13.690406799316406,-0.02991028249999994,-0.11006983960000005,-0.023928225999998887,-0.002443460952792055,0.004428772976935613,0.0032070425005395822
13.694952964782715,-0.02991028249999994,-0.11006983960000005,-0.023928225999998887,-0.002443460952792055,0.004428772976935613,0.0032070425005395822
13.699531555175781,0.00598205650000011,-0.12083754130000002,-0.016749758199999576,-0.003970624048287099,0.006872233929727675,0.0035124751196385848
13.704142093658447,0.00598205650000011,-0.12083754130000002,-0.016749758199999576,-0.003970624048287099,0.006872233929727675,0.0035124751196385848
13.708586692810059,0.00598205650000011,-0.09810572659999994,-0.013160524299998144,0.0010690141668465297,-0.003665191429188086,-0.00183259571459405
13.713369131088257,0.00598205650000011,-0.09810572659999994,-0.013160524299998144,0.0010690141668465297,-0.003665191429188086,-0.00183259571459405
13.718000650405884,0.00598205650000011,-0.09810572659999994,-0.013160524299998144,0.0027488935718910715,-0.0045814892864851214,-0.0029016098814405727
13.722509860992432,-0.020338992099999953,-0.09810572659999994,0.014356935600002174,0.0027488935718910715,-0.0045814892864851214,-0.0029016098814405727
13.726966619491577,-0.020338992099999953,-0.09810572659999994,0.014356935600002174,0.0027488935718910715,-0.0045814892864851214,-0.0029016098814405727
13.731338500976562,-0.015553346899999987,-0.09690931529999991,0.0,0.0032070425005395822,-0.0045814892864851214,-0.0032070425005395822
13.735674142837524,-0.015553346899999987,-0.09690931529999991,0.0,0.0032070425005395822,-0.0045814892864851214,-0.0032070425005395822
13.740103960037231,0.02273181470000002,-0.11246266220000012,0.004785645200001909,0.001221730476396038,-0.0009162978572970215,-0.0025961772623415633
13.744585514068604,0.02273181470000002,-0.11246266220000012,0.004785645200001909,0.001221730476396038,-0.0009162978572970215,-0.0025961772623415633
13.74894094467163,0.02273181470000002,-0.11844471870000006,-0.003589233899997879,-0.0022907446432425538,0.005039638215133632,0.0021380283336930525
13.753337621688843,0.01794616950000011,-0.11844471870000006,-0.003589233899997879,-0.0022907446432425538,0.005039638215133632,0.0021380283336930525
13.757691144943237,0.01794616950000011,-0.11844471870000006,-0.003589233899997879,-0.0022907446432425538,0.005039638215133632,-0.0009162978572970215
13.762151956558228,0.01435693560000012,-0.1483550012,-0.01076770169999719,-0.001221730476396024,0.0009162978572970215,-0.0009162978572970215
13.766541957855225,0.01435693560000012,-0.1483550012,-0.01076770169999719,-0.001221730476396024,0.0009162978572970215,-0.0009162978572970215
13.77104640007019,-0.04426721809999995,-0.12562318650000004,0.004785645200001909,-0.001832595714594043,0.0039706240482871025,0.0021380283336930525
13.775504112243652,-0.04426721809999995,-0.12562318650000004,0.004785645200001909,-0.001832595714594043,0.0039706240482871025,0.0021380283336930525
13.780445337295532,0.0011964113000000332,-0.13878371080000007,-0.0023928226000009545,0.000610865238198019,0.0022907446432425538,0.00045814892864851076
13.785582542419434,0.0011964113000000332,-0.13878371080000007,-0.0023928226000009545,0.000610865238198019,0.0022907446432425538,0.00045814892864851076
15.79304552078247,0.05264209720000007,-0.04546362940000004,-0.007178467799999311,0.00259617726234157,-0.0022907446432425677,0.0033597588100890835
15.798463582992554,0.08494520230000008,-0.10648060570000006,-0.02991028249999772,0.0016798794050445418,-0.004428772976935613,0.005345070834232635
15.804158687591553,0.08494520230000008,-0.10648060570000006,-0.02991028249999772,0.0016798794050445418,-0.017562375598192945,0.005650503453331644
15.809702396392822,0.08733802490000003,-0.06460621020000001,0.037088750300000584,0.0038179077387375943,-0.017562375598192945,0.005650503453331644
15.81502103805542,0.08733802490000003,-0.06460621020000001,0.06580262150000138,0.0035124751196385917,-0.010231992739816745,0.002443460952792062
15.820496797561646,-0.014356935599999954,-0.03828516159999995,0.06580262150000138,0.0035124751196385917,-0.010231992739816745,0.002443460952792062
15.825983762741089,0.00598205650000011,-0.061016976300000025,-0.021535403400001485,0.0033597588100890835,-0.009621127501618754,-0.0013744467859455323
15.831532716751099,0.00598205650000011,-0.061016976300000025,-0.021535403400001485,0.0033597588100890835,-0.009621127501618754,-0.0013744467859455323
15.837114334106445,0.033499516400000096,-0.06340979889999998,0.01196411300000122,-0.00045814892864851076,-0.0007635815477475272,-0.0001527163095495082
15.842429876327515,0.033499516400000096,-0.06340979889999998,0.01196411300000122,-0.00045814892864851076,-0.0007635815477475272,-0.0001527163095495082
15.847838878631592,0.03589233900000005,-0.015553346899999987,-0.01076770169999719,-0.001221730476396024,0.007941248096574205,-0.0021380283336930525
15.853242874145508,0.03589233900000005,-0.015553346899999987,-0.01076770169999719,-0.001221730476396024,0.007941248096574205,-0.0021380283336930525
15.858879804611206,0.010767701700000132,-0.019142580799999975,-0.03828516160000106,-0.0016798794050445418,0.010537425358915761,-0.0027488935718910645
15.864262819290161,0.010767701700000132,-0.019142580799999975,-0.03828516160000106,0.002443460952792062,0.0015271630954950266,-0.002443460952792062
15.86965823173523,0.06939185539999998,-0.026321048599999952,0.0011964113000004772,0.002443460952792062,0.0015271630954950266,-0.002443460952792062
15.875166654586792,0.05742774240000009,-0.023928225999999997,-0.027517459899996766,0.00259617726234157,-0.002443460952792076,-0.003054326190990074
15.880530595779419,0.05742774240000009,-0.023928225999999997,-0.027517459899996766,0.00259617726234157,-0.002443460952792076,-0.003054326190990074
15.885835886001587,0.045463629400000094,-0.05144568589999998,0.0035892339000014317,0.0,0.0019853120241435374,0.00183259571459405
15.891279458999634,0.045463629400000094,-0.05144568589999998,0.0035892339000014317,0.0,0.0019853120241435374,0.00183259571459405
15.896780967712402,0.06460621020000007,-0.06340979889999998,-0.05742774239999804,-0.00015271630954950127,-0.0035124751196385917,0.002443460952792062
15.902020931243896,0.06460621020000007,-0.06340979889999998,-0.05742774239999804,-0.00015271630954950127,-0.0035124751196385917,0.002443460952792062
15.907273769378662,0.046660040700000016,-0.06580262149999994,0.029910282500001273,0.0004581489286485177,-0.008704829644321718,0.004276056667386105
15.912407159805298,0.046660040700000016,-0.06580262149999994,0.029910282500001273,0.0004581489286485177,-0.008704829644321718,0.004276056667386105
15.917609930038452,-0.005982056499999944,-0.05383850849999994,-0.02273181469999841,0.0004581489286485177,-0.003054326190990067,-0.000610865238198012
15.922820806503296,-0.005982056499999944,-0.05383850849999994,-0.02273181469999841,0.0004581489286485177,-0.003054326190990067,-0.000610865238198012
15.927952289581299,-0.014356935599999954,-0.05383850849999994,0.0035892339000014317,-0.0007635815477475202,0.004123340357836611,-0.0039706240482871025
15.933065176010132,-0.014356935599999954,-0.05383850849999994,0.0035892339000014317,-0.0007635815477475202,0.004123340357836611,-0.0039706240482871025
15.938281536102295,0.041874395500000106,-0.07896314579999997,-0.028713871199997243,0.0022907446432425607,0.0064140850010791645,-0.0058032197628811455
15.943460702896118,0.041874395500000106,-0.07896314579999997,-0.028713871199997243,0.0022907446432425607,0.0064140850010791645,-0.0058032197628811455
15.948614120483398,0.09571290400000004,-0.05503491979999997,-0.03828516160000106,0.0009162978572970285,0.008552113334772224,-0.003054326190990074
15.954195261001587,0.09571290400000004,-0.05503491979999997,-0.016749758199999576,0.0021380283336930525,-0.0007635815477475272,-0.0013744467859455323
17.962434768676758,0.02632104860000012,0.09690931530000002,0.00837487910000334,0.000610865238198019,-0.005497787143782143,0.005345070834232635
17.967854261398315,0.02632104860000012,0.09690931530000002,0.00837487910000334,0.000610865238198019,-0.005497787143782143,0.005345070834232635
17.972805738449097,-0.0035892338999999884,0.12921242040000003,0.032303105099998675,0.0039706240482871025,-0.011301006906663288,0.007177666548826678
17.9776873588562,-0.0035892338999999884,0.12921242040000003,0.032303105099998675,0.0039706240482871025,-0.011301006906663288,0.007177666548826678
17.983288764953613,-0.016749758199999965,0.12323036389999997,0.02392822600000244,0.003665191429188093,-0.012980886311707837,0.006414085001079161
17.988200187683105,-0.016749758199999965,0.12323036389999997,0.02392822600000244,0.003665191429188093,-0.012980886311707837,0.006414085001079161
17.992918252944946,-0.020338992099999953,0.08494520230000002,0.004785645200001909,0.0022907446432425607,-0.01221730476396031,0.0015271630954950405
17.997698307037354,-0.020338992099999953,0.08494520230000002,0.004785645200001909,0.0022907446432425607,-0.01221730476396031,0.0015271630954950405
18.00292444229126,-0.025124637299999975,0.08614161360000006,-0.01076770169999719,-0.0007635815477475202,-0.004276056667386105,0.0007635815477475202
18.007953882217407,-0.025124637299999975,0.08614161360000006,-0.01076770169999719,-0.0007635815477475202,-0.004276056667386105,0.0007635815477475202
18.01278591156006,0.004785645200000077,0.07657032320000001,0.016749758199999576,0.0009162978572970285,0.001221730476396038,-0.0033597588100890835
18.017598152160645,0.004785645200000077,0.07657032320000001,0.016749758199999576,0.0009162978572970285,0.001221730476396038,-0.0033597588100890835
18.022499799728394,-0.010767701699999965,0.0921236701,0.0071784678000028634,-0.00335975881008908,0.011453723216212783,-0.0027488935718910645
18.027242183685303,-0.010767701699999965,0.0921236701,0.0071784678000028634,-0.00335975881008908,0.011453723216212783,-0.0027488935718910645
18.0319344997406,0.05144568590000004,0.1244267752,0.04426721810000345,-0.00045814892864851076,0.007177666548826678,-0.0013744467859455323
18.036569356918335,0.05144568590000004,0.1244267752,0.04426721810000345,-0.00045814892864851076,0.007177666548826678,-0.0013744467859455323
18.041259288787842,0.05144568590000004,0.1244267752,0.04426721810000345,0.0029016098814405797,-0.006566801310628659,-0.0022907446432425538
18.04589343070984,0.01914258080000003,0.13878371079999996,0.022731814700001962,0.0029016098814405797,-0.006566801310628659,-0.0022907446432425538
18.05062699317932,0.01914258080000003,0.13878371079999996,0.022731814700001962,0.0029016098814405797,-0.003665191429188086,-0.0029016098814405727
18.05527424812317,-0.04067798419999996,0.13399806559999994,-0.0011964113000004772,0.0019853120241435512,-0.003665191429188086,-0.0029016098814405727
18.059812307357788,-0.04067798419999996,0.13399806559999994,-0.0011964113000004772,0.0019853120241435512,-0.003665191429188086,-0.0029016098814405727
18.064301013946533,0.01794616950000011,0.08973084750000004,-0.06101697629999947,0.0,-0.009162978572970229,0.0041233403578366
18.068896532058716,0.01794616950000011,0.08973084750000004,-0.06101697629999947,0.0,-0.009162978572970229,0.0041233403578366
18.073667287826538,-0.02392822599999994,0.09930213789999998,0.029910282500001273,0.002443460952792062,-0.0033597588100890835,0.002443460952792062
18.078197240829468,-0.02392822599999994,0.09930213789999998,0.029910282500001273,0.002443460952792062,-0.0033597588100890835,0.002443460952792062
18.082679271697998,-0.0023928225999999553,0.11724830740000003,-0.008374879099999788,0.0004581489286485177,-0.006872233929727661,0.0
18.087249040603638,-0.0023928225999999553,0.11724830740000003,-0.008374879099999788,0.0004581489286485177,-0.006872233929727661,0.0
18.091817378997803,-0.0023928225999999553,0.08614161360000006,0.056231331100001114,-0.00015271630954950127,-0.00045814892864851076,-0.0029016098814405727
18.09629988670349,-0.0023928225999999553,0.08614161360000006,0.056231331100001114,-0.00015271630954950127,-0.00045814892864851076,-0.0029016098814405727
18.100842714309692,-0.0023928225999999553,0.08614161360000006,0.056231331100001114,-0.0035124751196385848,0.007330382858376186,-0.0029016098814405727
18.105785846710205,0.0011964113000000332,0.09690931530000002,0.04307080680000297,-0.0035124751196385848,0.007330382858376186,-0.0029016098814405727
20.112829208374023,-0.004785645199999966,0.08733802489999998,0.0035892339000014317,0.000610865238198019,0.0019853120241435374,-0.004276056667386105
20.117743730545044,-0.004785645199999966,0.08733802489999998,0.0035892339000014317,-0.0019853120241435512,-0.0015271630954950405,-0.000610865238198012
20.122605323791504,-0.0023928225999999553,0.07537391190000009,0.010767701700000742,-0.0019853120241435512,-0.0015271630954950405,-0.000610865238198012
20.127358198165894,-0.0023928225999999553,0.07537391190000009,0.010767701700000742,-0.005955936072430647,0.006108652381980148,0.005650503453331644
20.132035493850708,0.06101697630000008,0.07298108930000002,-0.003589233899997879,-0.005955936072430647,0.006108652381980148,0.005650503453331644
20.137102842330933,0.06101697630000008,0.07298108930000002,-0.003589233899997879,-0.004734205596034616,0.008704829644321718,0.0025961772623415633
20.141969442367554,0.04426721810000006,0.10528419440000003,-0.009571290399996712,-0.004734205596034616,0.008704829644321718,0.0025961772623415633
20.147391080856323,0.04426721810000006,0.10528419440000003,-0.009571290399996712,0.0,-0.0033597588100890835,-0.0032070425005395822
20.152626752853394,0.016749758200000076,0.07657032320000001,-0.04187439549999894,0.0,-0.0033597588100890835,-0.0032070425005395822
20.157492876052856,0.016749758200000076,0.07657032320000001,-0.04187439549999894,0.0009162978572970285,-0.0025961772623415563,-0.003054326190990074
20.16212797164917,-0.010767701699999965,0.08135596840000003,0.005982056500002386,0.0009162978572970285,-0.0025961772623415563,-0.003054326190990074
20.166862964630127,-0.010767701699999965,0.08135596840000003,0.005982056500002386,0.0009162978572970285,-0.0025961772623415563,-0.00045814892864851076
20.171571254730225,0.015553346900000042,0.07417750060000006,0.01196411300000122,-0.0021380283336930525,0.0032070425005395753,-0.00045814892864851076
20.176204442977905,0.015553346900000042,0.07417750060000006,0.01196411300000122,-0.0021380283336930525,0.0032070425005395753,-0.00045814892864851076
20.181246280670166,0.02751745990000004,0.08973084750000004,-0.027517459899996766,-0.0030543261909900705,0.005650503453331637,-0.002443460952792062
20.18707776069641,0.02751745990000004,0.08973084750000004,-0.027517459899996766,-0.0016798794050445418,0.006719517620178167,-0.0035124751196385917
